InwC 1585.12A  relative to Inci 1215.00A scaled to 1215A.
Hden   Phi(H)  Eq_Width (A)
 7.000	17.000	2.3702e-02
 7.000	17.250	2.4560e-02
 7.000	17.500	2.4571e-02
 7.000	17.750	2.4582e-02
 7.000	18.000	2.4594e-02
 7.000	18.250	2.4605e-02
 7.000	18.500	2.4612e-02
 7.000	18.750	2.4615e-02
 7.000	19.000	2.4618e-02
 7.000	19.250	2.4620e-02
 7.000	19.500	2.4621e-02
 7.000	19.750	2.4621e-02
 7.000	20.000	2.4621e-02
 7.000	20.250	2.4621e-02
 7.000	20.500	2.4622e-02
 7.000	20.750	2.4622e-02
 7.000	21.000	2.4622e-02
 7.000	21.250	2.4622e-02
 7.000	21.500	2.4622e-02
 7.000	21.750	2.4622e-02
 7.000	22.000	2.4622e-02
 7.000	22.250	2.4622e-02
 7.000	22.500	2.4622e-02
 7.000	22.750	2.4622e-02
 7.000	23.000	2.4623e-02
 7.000	23.250	2.4622e-02
 7.000	23.500	2.4622e-02
 7.000	23.750	2.4622e-02
 7.000	24.000	2.4622e-02
 7.250	17.000	2.2532e-02
 7.250	17.250	2.3708e-02
 7.250	17.500	2.4560e-02
 7.250	17.750	2.4571e-02
 7.250	18.000	2.4582e-02
 7.250	18.250	2.4594e-02
 7.250	18.500	2.4605e-02
 7.250	18.750	2.4612e-02
 7.250	19.000	2.4615e-02
 7.250	19.250	2.4618e-02
 7.250	19.500	2.4620e-02
 7.250	19.750	2.4621e-02
 7.250	20.000	2.4621e-02
 7.250	20.250	2.4621e-02
 7.250	20.500	2.4621e-02
 7.250	20.750	2.4621e-02
 7.250	21.000	2.4622e-02
 7.250	21.250	2.4622e-02
 7.250	21.500	2.4622e-02
 7.250	21.750	2.4622e-02
 7.250	22.000	2.4625e-02
 7.250	22.250	2.4622e-02
 7.250	22.500	2.4622e-02
 7.250	22.750	2.4622e-02
 7.250	23.000	2.4623e-02
 7.250	23.250	2.4623e-02
 7.250	23.500	2.4622e-02
 7.250	23.750	2.4623e-02
 7.250	24.000	2.4622e-02
 7.500	17.000	1.9479e-02
 7.500	17.250	2.2568e-02
 7.500	17.500	2.3713e-02
 7.500	17.750	2.4560e-02
 7.500	18.000	2.4571e-02
 7.500	18.250	2.4582e-02
 7.500	18.500	2.4594e-02
 7.500	18.750	2.4605e-02
 7.500	19.000	2.4612e-02
 7.500	19.250	2.4615e-02
 7.500	19.500	2.4618e-02
 7.500	19.750	2.4620e-02
 7.500	20.000	2.4621e-02
 7.500	20.250	2.4621e-02
 7.500	20.500	2.4621e-02
 7.500	20.750	2.4621e-02
 7.500	21.000	2.4621e-02
 7.500	21.250	2.4621e-02
 7.500	21.500	2.4622e-02
 7.500	21.750	2.4622e-02
 7.500	22.000	2.4622e-02
 7.500	22.250	2.4622e-02
 7.500	22.500	2.4622e-02
 7.500	22.750	2.4622e-02
 7.500	23.000	2.4622e-02
 7.500	23.250	2.4622e-02
 7.500	23.500	2.4622e-02
 7.500	23.750	2.4622e-02
 7.500	24.000	2.4622e-02
 7.750	17.000	1.7376e-02
 7.750	17.250	1.9537e-02
 7.750	17.500	2.2593e-02
 7.750	17.750	2.3718e-02
 7.750	18.000	2.4560e-02
 7.750	18.250	2.4571e-02
 7.750	18.500	2.4582e-02
 7.750	18.750	2.4594e-02
 7.750	19.000	2.4605e-02
 7.750	19.250	2.4612e-02
 7.750	19.500	2.4615e-02
 7.750	19.750	2.4618e-02
 7.750	20.000	2.4620e-02
 7.750	20.250	2.4621e-02
 7.750	20.500	2.4621e-02
 7.750	20.750	2.4621e-02
 7.750	21.000	2.4621e-02
 7.750	21.250	2.4621e-02
 7.750	21.500	2.4621e-02
 7.750	21.750	2.4621e-02
 7.750	22.000	2.4621e-02
 7.750	22.250	2.4622e-02
 7.750	22.500	2.4622e-02
 7.750	22.750	2.4622e-02
 7.750	23.000	2.4622e-02
 7.750	23.250	2.4622e-02
 7.750	23.500	2.4622e-02
 7.750	23.750	2.4622e-02
 7.750	24.000	2.4622e-02
 8.000	17.000	1.5860e-02
 8.000	17.250	1.7403e-02
 8.000	17.500	1.9534e-02
 8.000	17.750	2.2547e-02
 8.000	18.000	2.3713e-02
 8.000	18.250	2.4559e-02
 8.000	18.500	2.4571e-02
 8.000	18.750	2.4582e-02
 8.000	19.000	2.4594e-02
 8.000	19.250	2.4605e-02
 8.000	19.500	2.4612e-02
 8.000	19.750	2.4615e-02
 8.000	20.000	2.4618e-02
 8.000	20.250	2.4620e-02
 8.000	20.500	2.4621e-02
 8.000	20.750	2.4621e-02
 8.000	21.000	2.4621e-02
 8.000	21.250	2.4621e-02
 8.000	21.500	2.4621e-02
 8.000	21.750	2.4621e-02
 8.000	22.000	2.4621e-02
 8.000	22.250	2.4621e-02
 8.000	22.500	2.4621e-02
 8.000	22.750	2.4621e-02
 8.000	23.000	2.4621e-02
 8.000	23.250	2.4622e-02
 8.000	23.500	2.4621e-02
 8.000	23.750	2.4622e-02
 8.000	24.000	2.4624e-02
 8.250	17.000	1.4858e-02
 8.250	17.250	1.5903e-02
 8.250	17.500	1.7458e-02
 8.250	17.750	1.9575e-02
 8.250	18.000	2.2562e-02
 8.250	18.250	2.3716e-02
 8.250	18.500	2.4559e-02
 8.250	18.750	2.4571e-02
 8.250	19.000	2.4582e-02
 8.250	19.250	2.4594e-02
 8.250	19.500	2.4606e-02
 8.250	19.750	2.4612e-02
 8.250	20.000	2.4615e-02
 8.250	20.250	2.4618e-02
 8.250	20.500	2.4620e-02
 8.250	20.750	2.4621e-02
 8.250	21.000	2.4621e-02
 8.250	21.250	2.4621e-02
 8.250	21.500	2.4621e-02
 8.250	21.750	2.4621e-02
 8.250	22.000	2.4621e-02
 8.250	22.250	2.4621e-02
 8.250	22.500	2.4621e-02
 8.250	22.750	2.4622e-02
 8.250	23.000	2.4622e-02
 8.250	23.250	2.4622e-02
 8.250	23.500	2.4621e-02
 8.250	23.750	2.4621e-02
 8.250	24.000	2.4621e-02
 8.500	17.000	1.4184e-02
 8.500	17.250	1.4882e-02
 8.500	17.500	1.5949e-02
 8.500	17.750	1.7530e-02
 8.500	18.000	1.9638e-02
 8.500	18.250	2.2592e-02
 8.500	18.500	2.3718e-02
 8.500	18.750	2.4559e-02
 8.500	19.000	2.4571e-02
 8.500	19.250	2.4582e-02
 8.500	19.500	2.4594e-02
 8.500	19.750	2.4606e-02
 8.500	20.000	2.4612e-02
 8.500	20.250	2.4615e-02
 8.500	20.500	2.4618e-02
 8.500	20.750	2.4620e-02
 8.500	21.000	2.4621e-02
 8.500	21.250	2.4621e-02
 8.500	21.500	2.4621e-02
 8.500	21.750	2.4621e-02
 8.500	22.000	2.4621e-02
 8.500	22.250	2.4621e-02
 8.500	22.500	2.4621e-02
 8.500	22.750	2.4622e-02
 8.500	23.000	2.4621e-02
 8.500	23.250	2.4621e-02
 8.500	23.500	2.4621e-02
 8.500	23.750	2.4621e-02
 8.500	24.000	2.4621e-02
 8.750	17.000	1.3722e-02
 8.750	17.250	1.4190e-02
 8.750	17.500	1.4907e-02
 8.750	17.750	1.6009e-02
 8.750	18.000	1.7621e-02
 8.750	18.250	1.9749e-02
 8.750	18.500	2.2641e-02
 8.750	18.750	2.3719e-02
 8.750	19.000	2.4558e-02
 8.750	19.250	2.4571e-02
 8.750	19.500	2.4582e-02
 8.750	19.750	2.4595e-02
 8.750	20.000	2.4606e-02
 8.750	20.250	2.4612e-02
 8.750	20.500	2.4615e-02
 8.750	20.750	2.4618e-02
 8.750	21.000	2.4620e-02
 8.750	21.250	2.4621e-02
 8.750	21.500	2.4621e-02
 8.750	21.750	2.4621e-02
 8.750	22.000	2.4621e-02
 8.750	22.250	2.4621e-02
 8.750	22.500	2.4621e-02
 8.750	22.750	2.4621e-02
 8.750	23.000	2.4621e-02
 8.750	23.250	2.4621e-02
 8.750	23.500	2.4621e-02
 8.750	23.750	2.4621e-02
 8.750	24.000	2.4621e-02
 9.000	17.000	1.3395e-02
 9.000	17.250	1.3710e-02
 9.000	17.500	1.4192e-02
 9.000	17.750	1.4939e-02
 9.000	18.000	1.6112e-02
 9.000	18.250	1.7807e-02
 9.000	18.500	1.9965e-02
 9.000	18.750	2.2781e-02
 9.000	19.000	2.3717e-02
 9.000	19.250	2.4557e-02
 9.000	19.500	2.4571e-02
 9.000	19.750	2.4582e-02
 9.000	20.000	2.4595e-02
 9.000	20.250	2.4606e-02
 9.000	20.500	2.4612e-02
 9.000	20.750	2.4615e-02
 9.000	21.000	2.4618e-02
 9.000	21.250	2.4620e-02
 9.000	21.500	2.4621e-02
 9.000	21.750	2.4621e-02
 9.000	22.000	2.4621e-02
 9.000	22.250	2.4621e-02
 9.000	22.500	2.4621e-02
 9.000	22.750	2.4621e-02
 9.000	23.000	2.4621e-02
 9.000	23.250	2.4621e-02
 9.000	23.500	2.4621e-02
 9.000	23.750	2.4621e-02
 9.000	24.000	2.4622e-02
 9.250	17.000	1.3161e-02
 9.250	17.250	1.3371e-02
 9.250	17.500	1.3692e-02
 9.250	17.750	1.4197e-02
 9.250	18.000	1.5019e-02
 9.250	18.250	1.6312e-02
 9.250	18.500	1.8120e-02
 9.250	18.750	2.0422e-02
 9.250	19.000	2.2774e-02
 9.250	19.250	2.3710e-02
 9.250	19.500	2.4555e-02
 9.250	19.750	2.4570e-02
 9.250	20.000	2.4583e-02
 9.250	20.250	2.4595e-02
 9.250	20.500	2.4606e-02
 9.250	20.750	2.4612e-02
 9.250	21.000	2.4615e-02
 9.250	21.250	2.4618e-02
 9.250	21.500	2.4616e-02
 9.250	21.750	2.4617e-02
 9.250	22.000	2.4616e-02
 9.250	22.250	2.4617e-02
 9.250	22.500	2.4621e-02
 9.250	22.750	2.4621e-02
 9.250	23.000	2.4621e-02
 9.250	23.250	2.4621e-02
 9.250	23.500	2.4621e-02
 9.250	23.750	2.4621e-02
 9.250	24.000	2.4621e-02
 9.500	17.000	1.2994e-02
 9.500	17.250	1.3127e-02
 9.500	17.500	1.3332e-02
 9.500	17.750	1.3671e-02
 9.500	18.000	1.4245e-02
 9.500	18.250	1.5195e-02
 9.500	18.500	1.6624e-02
 9.500	18.750	1.8550e-02
 9.500	19.000	2.1002e-02
 9.500	19.250	2.2760e-02
 9.500	19.500	2.3697e-02
 9.500	19.750	2.4552e-02
 9.500	20.000	2.4570e-02
 9.500	20.250	2.4583e-02
 9.500	20.500	2.4595e-02
 9.500	20.750	2.4604e-02
 9.500	21.000	2.4608e-02
 9.500	21.250	2.4611e-02
 9.500	21.500	2.4613e-02
 9.500	21.750	2.4614e-02
 9.500	22.000	2.4613e-02
 9.500	22.250	2.4614e-02
 9.500	22.500	2.4614e-02
 9.500	22.750	2.4614e-02
 9.500	23.000	2.4614e-02
 9.500	23.250	2.4614e-02
 9.500	23.500	2.4615e-02
 9.500	23.750	2.4615e-02
 9.500	24.000	2.4615e-02
 9.750	17.000	1.2874e-02
 9.750	17.250	1.2951e-02
 9.750	17.500	1.3075e-02
 9.750	17.750	1.3286e-02
 9.750	18.000	1.3680e-02
 9.750	18.250	1.4354e-02
 9.750	18.500	1.5411e-02
 9.750	18.750	1.6942e-02
 9.750	19.000	1.9027e-02
 9.750	19.250	2.1746e-02
 9.750	19.500	2.2753e-02
 9.750	19.750	2.3677e-02
 9.750	20.000	2.4547e-02
 9.750	20.250	2.4569e-02
 9.750	20.500	2.4582e-02
 9.750	20.750	2.4595e-02
 9.750	21.000	2.4605e-02
 9.750	21.250	2.4609e-02
 9.750	21.500	2.4611e-02
 9.750	21.750	2.4614e-02
 9.750	22.000	2.4615e-02
 9.750	22.250	2.4613e-02
 9.750	22.500	2.4614e-02
 9.750	22.750	2.4614e-02
 9.750	23.000	2.4614e-02
 9.750	23.250	2.4614e-02
 9.750	23.500	2.4614e-02
 9.750	23.750	2.4614e-02
 9.750	24.000	2.4614e-02
10.000	17.000	1.2787e-02
10.000	17.250	1.2826e-02
10.000	17.500	1.2890e-02
10.000	17.750	1.3009e-02
10.000	18.000	1.3258e-02
10.000	18.250	1.3704e-02
10.000	18.500	1.4432e-02
10.000	18.750	1.5562e-02
10.000	19.000	1.7242e-02
10.000	19.250	1.9628e-02
10.000	19.500	2.2109e-02
10.000	19.750	2.2755e-02
10.000	20.000	2.3656e-02
10.000	20.250	2.4540e-02
10.000	20.500	2.4567e-02
10.000	20.750	2.4582e-02
10.000	21.000	2.4595e-02
10.000	21.250	2.4605e-02
10.000	21.500	2.4611e-02
10.000	21.750	2.4612e-02
10.000	22.000	2.4614e-02
10.000	22.250	2.4615e-02
10.000	22.500	2.4614e-02
10.000	22.750	2.4614e-02
10.000	23.000	2.4614e-02
10.000	23.250	2.4614e-02
10.000	23.500	2.4614e-02
10.000	23.750	2.4614e-02
10.000	24.000	2.4614e-02
10.250	17.000	1.2724e-02
10.250	17.250	1.2736e-02
10.250	17.500	1.2756e-02
10.250	17.750	1.2807e-02
10.250	18.000	1.2933e-02
10.250	18.250	1.3191e-02
10.250	18.500	1.3647e-02
10.250	18.750	1.4399e-02
10.250	19.000	1.5611e-02
10.250	19.250	1.7601e-02
10.250	19.500	2.0414e-02
10.250	19.750	2.2168e-02
10.250	20.000	2.2759e-02
10.250	20.250	2.3638e-02
10.250	20.500	2.4531e-02
10.250	20.750	2.4565e-02
10.250	21.000	2.4582e-02
10.250	21.250	2.4595e-02
10.250	21.500	2.4605e-02
10.250	21.750	2.4612e-02
10.250	22.000	2.4614e-02
10.250	22.250	2.4614e-02
10.250	22.500	2.4616e-02
10.250	22.750	2.4615e-02
10.250	23.000	2.4614e-02
10.250	23.250	2.4614e-02
10.250	23.500	2.4614e-02
10.250	23.750	2.4614e-02
10.250	24.000	2.4614e-02
10.500	17.000	1.2678e-02
10.500	17.250	1.2670e-02
10.500	17.500	1.2659e-02
10.500	17.750	1.2655e-02
10.500	18.000	1.2681e-02
10.500	18.250	1.2787e-02
10.500	18.500	1.3035e-02
10.500	18.750	1.3540e-02
10.500	19.000	1.4485e-02
10.500	19.250	1.5958e-02
10.500	19.500	1.8133e-02
10.500	19.750	2.0901e-02
10.500	20.000	2.2171e-02
10.500	20.250	2.2764e-02
10.500	20.500	2.3627e-02
10.500	20.750	2.4519e-02
10.500	21.000	2.4561e-02
10.500	21.250	2.4581e-02
10.500	21.500	2.4594e-02
10.500	21.750	2.4605e-02
10.500	22.000	2.4612e-02
10.500	22.250	2.4614e-02
10.500	22.500	2.4616e-02
10.500	22.750	2.4616e-02
10.500	23.000	2.4616e-02
10.500	23.250	2.4615e-02
10.500	23.500	2.4614e-02
10.500	23.750	2.4614e-02
10.500	24.000	2.4614e-02
10.750	17.000	1.2640e-02
10.750	17.250	1.2620e-02
10.750	17.500	1.2584e-02
10.750	17.750	1.2529e-02
10.750	18.000	1.2480e-02
10.750	18.250	1.2484e-02
10.750	18.500	1.2608e-02
10.750	18.750	1.2986e-02
10.750	19.000	1.3668e-02
10.750	19.250	1.4719e-02
10.750	19.500	1.6289e-02
10.750	19.750	1.8581e-02
10.750	20.000	2.1401e-02
10.750	20.250	2.2181e-02
10.750	20.500	2.2773e-02
10.750	20.750	2.3633e-02
10.750	21.000	2.4509e-02
10.750	21.250	2.4556e-02
10.750	21.500	2.4579e-02
10.750	21.750	2.4594e-02
10.750	22.000	2.4605e-02
10.750	22.250	2.4612e-02
10.750	22.500	2.4615e-02
10.750	22.750	2.4617e-02
10.750	23.000	2.4616e-02
10.750	23.250	2.4616e-02
10.750	23.500	2.4616e-02
10.750	23.750	2.4616e-02
10.750	24.000	2.4615e-02
11.000	17.000	1.2602e-02
11.000	17.250	1.2574e-02
11.000	17.500	1.2515e-02
11.000	17.750	1.2424e-02
11.000	18.000	1.2321e-02
11.000	18.250	1.2256e-02
11.000	18.500	1.2314e-02
11.000	18.750	1.2582e-02
11.000	19.000	1.3063e-02
11.000	19.250	1.3791e-02
11.000	19.500	1.4898e-02
11.000	19.750	1.6533e-02
11.000	20.000	1.8988e-02
11.000	20.250	2.1572e-02
11.000	20.500	2.2211e-02
11.000	20.750	2.2785e-02
11.000	21.000	2.3662e-02
11.000	21.250	2.4498e-02
11.000	21.500	2.4551e-02
11.000	21.750	2.4577e-02
11.000	22.000	2.4593e-02
11.000	22.250	2.4605e-02
11.000	22.500	2.4612e-02
11.000	22.750	2.4615e-02
11.000	23.000	2.4618e-02
11.000	23.250	2.4617e-02
11.000	23.500	2.4617e-02
11.000	23.750	2.4617e-02
11.000	24.000	2.4616e-02
11.250	17.000	1.2560e-02
11.250	17.250	1.2524e-02
11.250	17.500	1.2447e-02
11.250	17.750	1.2326e-02
11.250	18.000	1.2183e-02
11.250	18.250	1.2076e-02
11.250	18.500	1.2099e-02
11.250	18.750	1.2287e-02
11.250	19.000	1.2618e-02
11.250	19.250	1.3120e-02
11.250	19.500	1.3878e-02
11.250	19.750	1.5000e-02
11.250	20.000	1.6698e-02
11.250	20.250	1.9283e-02
11.250	20.500	2.1579e-02
11.250	20.750	2.2214e-02
11.250	21.000	2.2818e-02
11.250	21.250	2.3745e-02
11.250	21.500	2.4482e-02
11.250	21.750	2.4545e-02
11.250	22.000	2.4574e-02
11.250	22.250	2.4592e-02
11.250	22.500	2.4604e-02
11.250	22.750	2.4612e-02
11.250	23.000	2.4615e-02
11.250	23.250	2.4618e-02
11.250	23.500	2.4619e-02
11.250	23.750	2.4617e-02
11.250	24.000	2.4617e-02
11.500	17.000	1.2517e-02
11.500	17.250	1.2464e-02
11.500	17.500	1.2373e-02
11.500	17.750	1.2226e-02
11.500	18.000	1.2050e-02
11.500	18.250	1.1934e-02
11.500	18.500	1.1949e-02
11.500	18.750	1.2073e-02
11.500	19.000	1.2294e-02
11.500	19.250	1.2644e-02
11.500	19.500	1.3151e-02
11.500	19.750	1.3914e-02
11.500	20.000	1.5066e-02
11.500	20.250	1.6813e-02
11.500	20.500	1.9541e-02
11.500	20.750	2.1547e-02
11.500	21.000	2.2226e-02
11.500	21.250	2.2892e-02
11.500	21.500	2.3921e-02
11.500	21.750	2.4467e-02
11.500	22.000	2.4538e-02
11.500	22.250	2.4571e-02
11.500	22.500	2.4590e-02
11.500	22.750	2.4604e-02
11.500	23.000	2.4611e-02
11.500	23.250	2.4615e-02
11.500	23.500	2.4618e-02
11.500	23.750	2.4620e-02
11.500	24.000	2.4617e-02
11.750	17.000	1.2479e-02
11.750	17.250	1.2402e-02
11.750	17.500	1.2288e-02
11.750	17.750	1.2114e-02
11.750	18.000	1.1922e-02
11.750	18.250	1.1830e-02
11.750	18.500	1.1839e-02
11.750	18.750	1.1918e-02
11.750	19.000	1.2065e-02
11.750	19.250	1.2295e-02
11.750	19.500	1.2646e-02
11.750	19.750	1.3154e-02
11.750	20.000	1.3926e-02
11.750	20.250	1.5084e-02
11.750	20.500	1.6903e-02
11.750	20.750	1.9714e-02
11.750	21.000	2.1505e-02
11.750	21.250	2.2280e-02
11.750	21.500	2.3043e-02
11.750	21.750	2.4169e-02
11.750	22.000	2.4444e-02
11.750	22.250	2.4528e-02
11.750	22.500	2.4568e-02
11.750	22.750	2.4588e-02
11.750	23.000	2.4603e-02
11.750	23.250	2.4611e-02
11.750	23.500	2.4625e-02
11.750	23.750	2.4618e-02
11.750	24.000	2.4620e-02
12.000	17.000	1.2449e-02
12.000	17.250	1.2341e-02
12.000	17.500	1.2193e-02
12.000	17.750	1.1994e-02
12.000	18.000	1.1823e-02
12.000	18.250	1.1757e-02
12.000	18.500	1.1760e-02
12.000	18.750	1.1805e-02
12.000	19.000	1.1898e-02
12.000	19.250	1.2048e-02
12.000	19.500	1.2283e-02
12.000	19.750	1.2632e-02
12.000	20.000	1.3141e-02
12.000	20.250	1.3914e-02
12.000	20.500	1.5089e-02
12.000	20.750	1.6986e-02
12.000	21.000	1.9948e-02
12.000	21.250	2.1512e-02
12.000	21.500	2.2379e-02
12.000	21.750	2.3273e-02
12.000	22.000	2.4288e-02
12.000	22.250	2.4426e-02
12.000	22.500	2.4515e-02
12.000	22.750	2.4563e-02
12.000	23.000	2.4586e-02
12.000	23.250	2.4602e-02
12.000	23.500	2.4611e-02
12.000	23.750	2.4614e-02
12.000	24.000	2.4618e-02
12.250	17.000	1.2417e-02
12.250	17.250	1.2281e-02
12.250	17.500	1.2097e-02
12.250	17.750	1.1894e-02
12.250	18.000	1.1762e-02
12.250	18.250	1.1712e-02
12.250	18.500	1.1701e-02
12.250	18.750	1.1718e-02
12.250	19.000	1.1772e-02
12.250	19.250	1.1869e-02
12.250	19.500	1.2025e-02
12.250	19.750	1.2263e-02
12.250	20.000	1.2609e-02
12.250	20.250	1.3117e-02
12.250	20.500	1.3892e-02
12.250	20.750	1.5111e-02
12.250	21.000	1.7110e-02
12.250	21.250	1.9965e-02
12.250	21.500	2.1542e-02
12.250	21.750	2.2514e-02
12.250	22.000	2.3536e-02
12.250	22.250	2.4270e-02
12.250	22.500	2.4404e-02
12.250	22.750	2.4501e-02
12.250	23.000	2.4556e-02
12.250	23.250	2.4583e-02
12.250	23.500	2.4600e-02
12.250	23.750	2.4610e-02
12.250	24.000	2.4614e-02
12.500	17.000	1.2334e-02
12.500	17.250	1.2233e-02
12.500	17.500	1.2046e-02
12.500	17.750	1.1870e-02
12.500	18.000	1.1755e-02
12.500	18.250	1.1691e-02
12.500	18.500	1.1655e-02
12.500	18.750	1.1648e-02
12.500	19.000	1.1672e-02
12.500	19.250	1.1734e-02
12.500	19.500	1.1839e-02
12.500	19.750	1.1998e-02
12.500	20.000	1.2237e-02
12.500	20.250	1.2582e-02
12.500	20.500	1.3086e-02
12.500	20.750	1.3872e-02
12.500	21.000	1.5154e-02
12.500	21.250	1.7300e-02
12.500	21.500	2.0086e-02
12.500	21.750	2.1637e-02
12.500	22.000	2.2704e-02
12.500	22.250	2.3755e-02
12.500	22.500	2.4254e-02
12.500	22.750	2.4391e-02
12.500	23.000	2.4489e-02
12.500	23.250	2.4548e-02
12.500	23.500	2.4579e-02
12.500	23.750	2.4599e-02
12.500	24.000	2.4610e-02
12.750	17.000	9.0919e-03
12.750	17.250	1.2217e-02
12.750	17.500	1.2082e-02
12.750	17.750	1.1935e-02
12.750	18.000	1.1800e-02
12.750	18.250	1.1692e-02
12.750	18.500	1.1624e-02
12.750	18.750	1.1591e-02
12.750	19.000	1.1592e-02
12.750	19.250	1.1626e-02
12.750	19.500	1.1696e-02
12.750	19.750	1.1805e-02
12.750	20.000	1.1965e-02
12.750	20.250	1.2202e-02
12.750	20.500	1.2543e-02
12.750	20.750	1.3045e-02
12.750	21.000	1.3859e-02
12.750	21.250	1.5234e-02
12.750	21.500	1.7444e-02
12.750	21.750	2.0246e-02
12.750	22.000	2.1790e-02
12.750	22.250	2.2913e-02
12.750	22.500	2.3914e-02
12.750	22.750	2.4238e-02
12.750	23.000	2.4376e-02
12.750	23.250	2.4477e-02
12.750	23.500	2.4538e-02
12.750	23.750	2.4574e-02
12.750	24.000	2.4596e-02
13.000	17.000	1.5275e-03
13.000	17.250	3.7352e-03
13.000	17.500	1.1032e-02
13.000	17.750	1.1915e-02
13.000	18.000	1.1814e-02
13.000	18.250	1.1702e-02
13.000	18.500	1.1612e-02
13.000	18.750	1.1553e-02
13.000	19.000	1.1529e-02
13.000	19.250	1.1539e-02
13.000	19.500	1.1581e-02
13.000	19.750	1.1654e-02
13.000	20.000	1.1763e-02
13.000	20.250	1.1919e-02
13.000	20.500	1.2150e-02
13.000	20.750	1.2483e-02
13.000	21.000	1.3004e-02
13.000	21.250	1.3871e-02
13.000	21.500	1.5270e-02
13.000	21.750	1.7788e-02
13.000	22.000	2.0521e-02
13.000	22.250	2.1933e-02
13.000	22.500	2.3052e-02
13.000	22.750	2.3971e-02
13.000	23.000	2.4230e-02
13.000	23.250	2.4367e-02
13.000	23.500	2.4466e-02
13.000	23.750	2.4529e-02
13.000	24.000	2.4568e-02
13.250	17.000	9.3210e-04
13.250	17.250	1.7918e-03
13.250	17.500	4.3407e-03
13.250	17.750	8.1146e-03
13.250	18.000	1.1732e-02
13.250	18.250	1.1641e-02
13.250	18.500	1.1565e-02
13.250	18.750	1.1512e-02
13.250	19.000	1.1483e-02
13.250	19.250	1.1470e-02
13.250	19.500	1.1487e-02
13.250	19.750	1.1531e-02
13.250	20.000	1.1604e-02
13.250	20.250	1.1709e-02
13.250	20.500	1.1856e-02
13.250	20.750	1.2073e-02
13.250	21.000	1.2394e-02
13.250	21.250	1.2922e-02
13.250	21.500	1.3787e-02
13.250	21.750	1.5412e-02
13.250	22.000	1.8114e-02
13.250	22.250	2.0660e-02
13.250	22.500	2.2028e-02
13.250	22.750	2.3087e-02
13.250	23.000	2.3981e-02
13.250	23.250	2.4220e-02
13.250	23.500	2.4360e-02
13.250	23.750	2.4458e-02
13.250	24.000	2.4520e-02
13.500	17.000	5.6930e-04
13.500	17.250	1.0503e-03
13.500	17.500	2.4716e-03
13.500	17.750	5.5370e-03
13.500	18.000	8.9535e-03
13.500	18.250	1.1529e-02
13.500	18.500	1.1465e-02
13.500	18.750	1.1424e-02
13.500	19.000	1.1412e-02
13.500	19.250	1.1409e-02
13.500	19.500	1.1412e-02
13.500	19.750	1.1430e-02
13.500	20.000	1.1472e-02
13.500	20.250	1.1537e-02
13.500	20.500	1.1628e-02
13.500	20.750	1.1755e-02
13.500	21.000	1.1944e-02
13.500	21.250	1.2247e-02
13.500	21.500	1.2738e-02
13.500	21.750	1.3641e-02
13.500	22.000	1.5382e-02
13.500	22.250	1.8377e-02
13.500	22.500	2.0733e-02
13.500	22.750	2.2009e-02
13.500	23.000	2.3015e-02
13.500	23.250	2.3958e-02
13.500	23.500	2.4206e-02
13.500	23.750	2.4348e-02
13.500	24.000	2.4445e-02
13.750	17.000	3.3909e-04
13.750	17.250	6.8329e-04
13.750	17.500	1.4927e-03
13.750	17.750	2.9587e-03
13.750	18.000	6.6082e-03
13.750	18.250	9.2316e-03
13.750	18.500	1.1353e-02
13.750	18.750	1.1309e-02
13.750	19.000	1.1300e-02
13.750	19.250	1.1317e-02
13.750	19.500	1.1336e-02
13.750	19.750	1.1349e-02
13.750	20.000	1.1364e-02
13.750	20.250	1.1396e-02
13.750	20.500	1.1444e-02
13.750	20.750	1.1510e-02
13.750	21.000	1.1601e-02
13.750	21.250	1.1745e-02
13.750	21.500	1.1979e-02
13.750	21.750	1.2415e-02
13.750	22.000	1.3328e-02
13.750	22.250	1.5297e-02
13.750	22.500	1.8624e-02
13.750	22.750	2.0795e-02
13.750	23.000	2.1957e-02
13.750	23.250	2.2977e-02
13.750	23.500	2.3920e-02
13.750	23.750	2.4181e-02
13.750	24.000	2.4328e-02
14.000	17.000	2.0502e-04
14.000	17.250	3.9959e-04
14.000	17.500	9.1391e-04
14.000	17.750	1.8051e-03
14.000	18.000	3.6789e-03
14.000	18.250	7.5092e-03
14.000	18.500	9.7511e-03
14.000	18.750	1.1197e-02
14.000	19.000	1.1179e-02
14.000	19.250	1.1193e-02
14.000	19.500	1.1226e-02
14.000	19.750	1.1257e-02
14.000	20.000	1.1274e-02
14.000	20.250	1.1283e-02
14.000	20.500	1.1295e-02
14.000	20.750	1.1311e-02
14.000	21.000	1.1331e-02
14.000	21.250	1.1358e-02
14.000	21.500	1.1421e-02
14.000	21.750	1.1537e-02
14.000	22.000	1.1850e-02
14.000	22.250	1.2748e-02
14.000	22.500	1.5132e-02
14.000	22.750	1.8915e-02
14.000	23.000	2.0773e-02
14.000	23.250	2.1904e-02
14.000	23.500	2.2944e-02
14.000	23.750	2.3892e-02
14.000	24.000	2.4139e-02
