InwC 5100.00A  relative to Inci 1215.00A scaled to 1215A.
Hden   Phi(H)  Eq_Width (A)
 7.000	17.000	7.5730e-03
 7.000	17.250	7.5774e-03
 7.000	17.500	7.5807e-03
 7.000	17.750	7.5842e-03
 7.000	18.000	7.5877e-03
 7.000	18.250	7.5906e-03
 7.000	18.500	7.5925e-03
 7.000	18.750	7.5935e-03
 7.000	19.000	7.5944e-03
 7.000	19.250	7.5951e-03
 7.000	19.500	7.5952e-03
 7.000	19.750	7.5954e-03
 7.000	20.000	7.5955e-03
 7.000	20.250	7.5955e-03
 7.000	20.500	7.5956e-03
 7.000	20.750	7.5956e-03
 7.000	21.000	7.5956e-03
 7.000	21.250	7.5956e-03
 7.000	21.500	7.5956e-03
 7.000	21.750	7.5956e-03
 7.000	22.000	7.5956e-03
 7.000	22.250	7.5957e-03
 7.000	22.500	7.5956e-03
 7.000	22.750	7.5965e-03
 7.000	23.000	7.5965e-03
 7.000	23.250	7.5957e-03
 7.000	23.500	7.5964e-03
 7.000	23.750	7.5964e-03
 7.000	24.000	7.5967e-03
 7.250	17.000	7.3005e-03
 7.250	17.250	7.5731e-03
 7.250	17.500	7.5775e-03
 7.250	17.750	7.5808e-03
 7.250	18.000	7.5842e-03
 7.250	18.250	7.5877e-03
 7.250	18.500	7.5906e-03
 7.250	18.750	7.5925e-03
 7.250	19.000	7.5935e-03
 7.250	19.250	7.5944e-03
 7.250	19.500	7.5951e-03
 7.250	19.750	7.5952e-03
 7.250	20.000	7.5954e-03
 7.250	20.250	7.5955e-03
 7.250	20.500	7.5955e-03
 7.250	20.750	7.5955e-03
 7.250	21.000	7.5956e-03
 7.250	21.250	7.5956e-03
 7.250	21.500	7.5956e-03
 7.250	21.750	7.5957e-03
 7.250	22.000	7.5956e-03
 7.250	22.250	7.5956e-03
 7.250	22.500	7.5956e-03
 7.250	22.750	7.5956e-03
 7.250	23.000	7.5956e-03
 7.250	23.250	7.5956e-03
 7.250	23.500	7.5956e-03
 7.250	23.750	7.5956e-03
 7.250	24.000	7.5956e-03
 7.500	17.000	6.8349e-03
 7.500	17.250	7.3016e-03
 7.500	17.500	7.5731e-03
 7.500	17.750	7.5775e-03
 7.500	18.000	7.5808e-03
 7.500	18.250	7.5843e-03
 7.500	18.500	7.5877e-03
 7.500	18.750	7.5906e-03
 7.500	19.000	7.5925e-03
 7.500	19.250	7.5935e-03
 7.500	19.500	7.5944e-03
 7.500	19.750	7.5951e-03
 7.500	20.000	7.5952e-03
 7.500	20.250	7.5954e-03
 7.500	20.500	7.5954e-03
 7.500	20.750	7.5955e-03
 7.500	21.000	7.5955e-03
 7.500	21.250	7.5955e-03
 7.500	21.500	7.5955e-03
 7.500	21.750	7.5956e-03
 7.500	22.000	7.5956e-03
 7.500	22.250	7.5956e-03
 7.500	22.500	7.5956e-03
 7.500	22.750	7.5956e-03
 7.500	23.000	7.5956e-03
 7.500	23.250	7.5956e-03
 7.500	23.500	7.5965e-03
 7.500	23.750	7.5956e-03
 7.500	24.000	7.5956e-03
 7.750	17.000	4.9388e-03
 7.750	17.250	6.8550e-03
 7.750	17.500	7.3027e-03
 7.750	17.750	7.5731e-03
 7.750	18.000	7.5775e-03
 7.750	18.250	7.5808e-03
 7.750	18.500	7.5843e-03
 7.750	18.750	7.5877e-03
 7.750	19.000	7.5906e-03
 7.750	19.250	7.5925e-03
 7.750	19.500	7.5935e-03
 7.750	19.750	7.5944e-03
 7.750	20.000	7.5951e-03
 7.750	20.250	7.5953e-03
 7.750	20.500	7.5954e-03
 7.750	20.750	7.5954e-03
 7.750	21.000	7.5955e-03
 7.750	21.250	7.5955e-03
 7.750	21.500	7.5955e-03
 7.750	21.750	7.5955e-03
 7.750	22.000	7.5955e-03
 7.750	22.250	7.5955e-03
 7.750	22.500	7.5955e-03
 7.750	22.750	7.5956e-03
 7.750	23.000	7.5956e-03
 7.750	23.250	7.5956e-03
 7.750	23.500	7.5956e-03
 7.750	23.750	7.5957e-03
 7.750	24.000	7.5956e-03
 8.000	17.000	3.4691e-03
 8.000	17.250	4.9216e-03
 8.000	17.500	6.8175e-03
 8.000	17.750	7.3008e-03
 8.000	18.000	7.5731e-03
 8.000	18.250	7.5775e-03
 8.000	18.500	7.5808e-03
 8.000	18.750	7.5843e-03
 8.000	19.000	7.5877e-03
 8.000	19.250	7.5906e-03
 8.000	19.500	7.5925e-03
 8.000	19.750	7.5935e-03
 8.000	20.000	7.5944e-03
 8.000	20.250	7.5951e-03
 8.000	20.500	7.5952e-03
 8.000	20.750	7.5954e-03
 8.000	21.000	7.5954e-03
 8.000	21.250	7.5955e-03
 8.000	21.500	7.5955e-03
 8.000	21.750	7.5955e-03
 8.000	22.000	7.5955e-03
 8.000	22.250	7.5955e-03
 8.000	22.500	7.5955e-03
 8.000	22.750	7.5955e-03
 8.000	23.000	7.5955e-03
 8.000	23.250	7.5955e-03
 8.000	23.500	7.5955e-03
 8.000	23.750	7.5955e-03
 8.000	24.000	7.5956e-03
 8.250	17.000	2.4325e-03
 8.250	17.250	3.5059e-03
 8.250	17.500	4.9503e-03
 8.250	17.750	6.8278e-03
 8.250	18.000	7.3016e-03
 8.250	18.250	7.5732e-03
 8.250	18.500	7.5775e-03
 8.250	18.750	7.5809e-03
 8.250	19.000	7.5844e-03
 8.250	19.250	7.5877e-03
 8.250	19.500	7.5906e-03
 8.250	19.750	7.5925e-03
 8.250	20.000	7.5935e-03
 8.250	20.250	7.5944e-03
 8.250	20.500	7.5951e-03
 8.250	20.750	7.5952e-03
 8.250	21.000	7.5954e-03
 8.250	21.250	7.5954e-03
 8.250	21.500	7.5955e-03
 8.250	21.750	7.5955e-03
 8.250	22.000	7.5955e-03
 8.250	22.250	7.5955e-03
 8.250	22.500	7.5955e-03
 8.250	22.750	7.5959e-03
 8.250	23.000	7.5955e-03
 8.250	23.250	7.5956e-03
 8.250	23.500	7.5959e-03
 8.250	23.750	7.5955e-03
 8.250	24.000	7.5956e-03
 8.500	17.000	1.7068e-03
 8.500	17.250	2.4675e-03
 8.500	17.500	3.5499e-03
 8.500	17.750	4.9845e-03
 8.500	18.000	6.8412e-03
 8.500	18.250	7.3022e-03
 8.500	18.500	7.5732e-03
 8.500	18.750	7.5775e-03
 8.500	19.000	7.5809e-03
 8.500	19.250	7.5844e-03
 8.500	19.500	7.5877e-03
 8.500	19.750	7.5906e-03
 8.500	20.000	7.5925e-03
 8.500	20.250	7.5935e-03
 8.500	20.500	7.5944e-03
 8.500	20.750	7.5951e-03
 8.500	21.000	7.5952e-03
 8.500	21.250	7.5954e-03
 8.500	21.500	7.5954e-03
 8.500	21.750	7.5955e-03
 8.500	22.000	7.5955e-03
 8.500	22.250	7.5955e-03
 8.500	22.500	7.5955e-03
 8.500	22.750	7.5955e-03
 8.500	23.000	7.5955e-03
 8.500	23.250	7.5955e-03
 8.500	23.500	7.5955e-03
 8.500	23.750	7.5955e-03
 8.500	24.000	7.5955e-03
 8.750	17.000	1.2011e-03
 8.750	17.250	1.7367e-03
 8.750	17.500	2.5136e-03
 8.750	17.750	3.6165e-03
 8.750	18.000	5.0505e-03
 8.750	18.250	6.8764e-03
 8.750	18.500	7.3024e-03
 8.750	18.750	7.5731e-03
 8.750	19.000	7.5775e-03
 8.750	19.250	7.5809e-03
 8.750	19.500	7.5844e-03
 8.750	19.750	7.5877e-03
 8.750	20.000	7.5906e-03
 8.750	20.250	7.5925e-03
 8.750	20.500	7.5935e-03
 8.750	20.750	7.5944e-03
 8.750	21.000	7.5951e-03
 8.750	21.250	7.5952e-03
 8.750	21.500	7.5954e-03
 8.750	21.750	7.5954e-03
 8.750	22.000	7.5955e-03
 8.750	22.250	7.5955e-03
 8.750	22.500	7.5955e-03
 8.750	22.750	7.5955e-03
 8.750	23.000	7.5955e-03
 8.750	23.250	7.5955e-03
 8.750	23.500	7.5956e-03
 8.750	23.750	7.5955e-03
 8.750	24.000	7.5955e-03
 9.000	17.000	8.4774e-04
 9.000	17.250	1.2258e-03
 9.000	17.500	1.7814e-03
 9.000	17.750	2.5928e-03
 9.000	18.000	3.7253e-03
 9.000	18.250	5.1759e-03
 9.000	18.500	6.9437e-03
 9.000	18.750	7.3021e-03
 9.000	19.000	7.5731e-03
 9.000	19.250	7.5775e-03
 9.000	19.500	7.5810e-03
 9.000	19.750	7.5844e-03
 9.000	20.000	7.5878e-03
 9.000	20.250	7.5906e-03
 9.000	20.500	7.5925e-03
 9.000	20.750	7.5935e-03
 9.000	21.000	7.5944e-03
 9.000	21.250	7.5951e-03
 9.000	21.500	7.5952e-03
 9.000	21.750	7.5954e-03
 9.000	22.000	7.5954e-03
 9.000	22.250	7.5954e-03
 9.000	22.500	7.5955e-03
 9.000	22.750	7.5955e-03
 9.000	23.000	7.5955e-03
 9.000	23.250	7.5955e-03
 9.000	23.500	7.5955e-03
 9.000	23.750	7.5955e-03
 9.000	24.000	7.5955e-03
 9.250	17.000	6.0016e-04
 9.250	17.250	8.6658e-04
 9.250	17.500	1.2652e-03
 9.250	17.750	1.8626e-03
 9.250	18.000	2.7355e-03
 9.250	18.250	3.9304e-03
 9.250	18.500	5.4134e-03
 9.250	18.750	7.1065e-03
 9.250	19.000	7.3008e-03
 9.250	19.250	7.5729e-03
 9.250	19.500	7.5775e-03
 9.250	19.750	7.5810e-03
 9.250	20.000	7.5845e-03
 9.250	20.250	7.5878e-03
 9.250	20.500	7.5906e-03
 9.250	20.750	7.5925e-03
 9.250	21.000	7.5935e-03
 9.250	21.250	7.5944e-03
 9.250	21.500	7.5943e-03
 9.250	21.750	7.5945e-03
 9.250	22.000	7.5944e-03
 9.250	22.250	7.5947e-03
 9.250	22.500	7.5951e-03
 9.250	22.750	7.5951e-03
 9.250	23.000	7.5953e-03
 9.250	23.250	7.5954e-03
 9.250	23.500	7.5954e-03
 9.250	23.750	7.5955e-03
 9.250	24.000	7.5954e-03
 9.500	17.000	4.2626e-04
 9.500	17.250	6.1547e-04
 9.500	17.500	9.0123e-04
 9.500	17.750	1.3420e-03
 9.500	18.000	2.0126e-03
 9.500	18.250	2.9890e-03
 9.500	18.500	4.2847e-03
 9.500	18.750	5.8505e-03
 9.500	19.000	7.1109e-03
 9.500	19.250	7.2980e-03
 9.500	19.500	7.5726e-03
 9.500	19.750	7.5774e-03
 9.500	20.000	7.5810e-03
 9.500	20.250	7.5845e-03
 9.500	20.500	7.5878e-03
 9.500	20.750	7.5901e-03
 9.500	21.000	7.5918e-03
 9.500	21.250	7.5927e-03
 9.500	21.500	7.5935e-03
 9.500	21.750	7.5937e-03
 9.500	22.000	7.5940e-03
 9.500	22.250	7.5941e-03
 9.500	22.500	7.5942e-03
 9.500	22.750	7.5941e-03
 9.500	23.000	7.5941e-03
 9.500	23.250	7.5941e-03
 9.500	23.500	7.5942e-03
 9.500	23.750	7.5942e-03
 9.500	24.000	7.5942e-03
 9.750	17.000	3.0362e-04
 9.750	17.250	4.3712e-04
 9.750	17.500	6.4189e-04
 9.750	17.750	9.6708e-04
 9.750	18.000	1.4871e-03
 9.750	18.250	2.2722e-03
 9.750	18.500	3.3612e-03
 9.750	18.750	4.7347e-03
 9.750	19.000	6.4127e-03
 9.750	19.250	7.1053e-03
 9.750	19.500	7.2926e-03
 9.750	19.750	7.5716e-03
 9.750	20.000	7.5773e-03
 9.750	20.250	7.5810e-03
 9.750	20.500	7.5845e-03
 9.750	20.750	7.5878e-03
 9.750	21.000	7.5905e-03
 9.750	21.250	7.5919e-03
 9.750	21.500	7.5928e-03
 9.750	21.750	7.5936e-03
 9.750	22.000	7.5939e-03
 9.750	22.250	7.5940e-03
 9.750	22.500	7.5941e-03
 9.750	22.750	7.5942e-03
 9.750	23.000	7.5942e-03
 9.750	23.250	7.5942e-03
 9.750	23.500	7.5942e-03
 9.750	23.750	7.5942e-03
 9.750	24.000	7.5942e-03
10.000	17.000	2.1671e-04
10.000	17.250	3.1169e-04
10.000	17.500	4.5852e-04
10.000	17.750	6.9852e-04
10.000	18.000	1.1007e-03
10.000	18.250	1.7187e-03
10.000	18.500	2.6016e-03
10.000	18.750	3.7643e-03
10.000	19.000	5.2462e-03
10.000	19.250	6.7449e-03
10.000	19.500	7.0991e-03
10.000	19.750	7.2858e-03
10.000	20.000	7.5708e-03
10.000	20.250	7.5771e-03
10.000	20.500	7.5810e-03
10.000	20.750	7.5845e-03
10.000	21.000	7.5878e-03
10.000	21.250	7.5905e-03
10.000	21.500	7.5920e-03
10.000	21.750	7.5928e-03
10.000	22.000	7.5937e-03
10.000	22.250	7.5941e-03
10.000	22.500	7.5940e-03
10.000	22.750	7.5941e-03
10.000	23.000	7.5942e-03
10.000	23.250	7.5941e-03
10.000	23.500	7.5942e-03
10.000	23.750	7.5942e-03
10.000	24.000	7.5942e-03
10.250	17.000	1.5539e-04
10.250	17.250	2.2296e-04
10.250	17.500	3.2922e-04
10.250	17.750	5.0798e-04
10.250	18.000	8.1539e-04
10.250	18.250	1.2916e-03
10.250	18.500	1.9797e-03
10.250	18.750	2.9270e-03
10.250	19.000	4.1660e-03
10.250	19.250	5.7728e-03
10.250	19.500	6.9849e-03
10.250	19.750	7.0900e-03
10.250	20.000	7.2746e-03
10.250	20.250	7.5675e-03
10.250	20.500	7.5765e-03
10.250	20.750	7.5808e-03
10.250	21.000	7.5845e-03
10.250	21.250	7.5878e-03
10.250	21.500	7.5906e-03
10.250	21.750	7.5923e-03
10.250	22.000	7.5928e-03
10.250	22.250	7.5937e-03
10.250	22.500	7.5942e-03
10.250	22.750	7.5942e-03
10.250	23.000	7.5941e-03
10.250	23.250	7.5942e-03
10.250	23.500	7.5942e-03
10.250	23.750	7.5942e-03
10.250	24.000	7.5942e-03
10.500	17.000	1.1226e-04
10.500	17.250	1.6066e-04
10.500	17.500	2.3794e-04
10.500	17.750	3.7177e-04
10.500	18.000	6.0477e-04
10.500	18.250	9.7037e-04
10.500	18.500	1.4850e-03
10.500	18.750	2.2148e-03
10.500	19.000	3.2176e-03
10.500	19.250	4.5445e-03
10.500	19.500	6.1930e-03
10.500	19.750	6.9802e-03
10.500	20.000	7.0809e-03
10.500	20.250	7.2676e-03
10.500	20.500	7.5649e-03
10.500	20.750	7.5748e-03
10.500	21.000	7.5806e-03
10.500	21.250	7.5844e-03
10.500	21.500	7.5878e-03
10.500	21.750	7.5906e-03
10.500	22.000	7.5924e-03
10.500	22.250	7.5933e-03
10.500	22.500	7.5937e-03
10.500	22.750	7.5942e-03
10.500	23.000	7.5943e-03
10.500	23.250	7.5942e-03
10.500	23.500	7.5941e-03
10.500	23.750	7.5942e-03
10.500	24.000	7.5942e-03
10.750	17.000	8.1728e-05
10.750	17.250	1.1646e-04
10.750	17.500	1.7325e-04
10.750	17.750	2.7383e-04
10.750	18.000	4.4790e-04
10.750	18.250	7.1753e-04
10.750	18.500	1.1024e-03
10.750	18.750	1.6556e-03
10.750	19.000	2.4181e-03
10.750	19.250	3.4670e-03
10.750	19.500	4.8566e-03
10.750	19.750	6.5676e-03
10.750	20.000	6.9721e-03
10.750	20.250	7.0790e-03
10.750	20.500	7.2630e-03
10.750	20.750	7.5612e-03
10.750	21.000	7.5727e-03
10.750	21.250	7.5800e-03
10.750	21.500	7.5844e-03
10.750	21.750	7.5877e-03
10.750	22.000	7.5905e-03
10.750	22.250	7.5924e-03
10.750	22.500	7.5933e-03
10.750	22.750	7.5940e-03
10.750	23.000	7.5943e-03
10.750	23.250	7.5944e-03
10.750	23.500	7.5943e-03
10.750	23.750	7.5942e-03
10.750	24.000	7.5942e-03
11.000	17.000	6.0165e-05
11.000	17.250	8.5103e-05
11.000	17.500	1.2691e-04
11.000	17.750	2.0181e-04
11.000	18.000	3.2971e-04
11.000	18.250	5.2601e-04
11.000	18.500	8.1276e-04
11.000	18.750	1.2203e-03
11.000	19.000	1.7894e-03
11.000	19.250	2.5850e-03
11.000	19.500	3.6807e-03
11.000	19.750	5.1635e-03
11.000	20.000	6.8273e-03
11.000	20.250	6.9671e-03
11.000	20.500	7.0731e-03
11.000	20.750	7.2654e-03
11.000	21.000	7.5570e-03
11.000	21.250	7.5700e-03
11.000	21.500	7.5792e-03
11.000	21.750	7.5840e-03
11.000	22.000	7.5876e-03
11.000	22.250	7.5904e-03
11.000	22.500	7.5924e-03
11.000	22.750	7.5934e-03
11.000	23.000	7.5942e-03
11.000	23.250	7.5943e-03
11.000	23.500	7.5945e-03
11.000	23.750	7.5945e-03
11.000	24.000	7.5944e-03
11.250	17.000	4.5021e-05
11.250	17.250	6.2716e-05
11.250	17.500	9.3169e-05
11.250	17.750	1.4823e-04
11.250	18.000	2.4107e-04
11.250	18.250	3.8239e-04
11.250	18.500	5.8716e-04
11.250	18.750	8.8831e-04
11.250	19.000	1.3056e-03
11.250	19.250	1.9002e-03
11.250	19.500	2.7310e-03
11.250	19.750	3.8830e-03
11.250	20.000	5.4440e-03
11.250	20.250	6.8673e-03
11.250	20.500	6.9639e-03
11.250	20.750	7.0757e-03
11.250	21.000	7.2780e-03
11.250	21.250	7.5549e-03
11.250	21.500	7.5680e-03
11.250	21.750	7.5777e-03
11.250	22.000	7.5835e-03
11.250	22.250	7.5872e-03
11.250	22.500	7.5902e-03
11.250	22.750	7.5923e-03
11.250	23.000	7.5933e-03
11.250	23.250	7.5943e-03
11.250	23.500	7.5944e-03
11.250	23.750	7.5946e-03
11.250	24.000	7.5946e-03
11.500	17.000	3.4568e-05
11.500	17.250	4.6996e-05
11.500	17.500	6.8971e-05
11.500	17.750	1.0864e-04
11.500	18.000	1.7473e-04
11.500	18.250	2.7498e-04
11.500	18.500	4.2247e-04
11.500	18.750	6.3942e-04
11.500	19.000	9.4650e-04
11.500	19.250	1.3788e-03
11.500	19.500	1.9854e-03
11.500	19.750	2.8514e-03
11.500	20.000	4.0626e-03
11.500	20.250	5.7194e-03
11.500	20.500	6.8793e-03
11.500	20.750	6.9634e-03
11.500	21.000	7.0861e-03
11.500	21.250	7.3145e-03
11.500	21.500	7.5528e-03
11.500	21.750	7.5658e-03
11.500	22.000	7.5758e-03
11.500	22.250	7.5824e-03
11.500	22.500	7.5865e-03
11.500	22.750	7.5899e-03
11.500	23.000	7.5923e-03
11.500	23.250	7.5933e-03
11.500	23.500	7.5943e-03
11.500	23.750	7.5948e-03
11.500	24.000	7.5946e-03
11.750	17.000	2.7325e-05
11.750	17.250	3.6049e-05
11.750	17.500	5.1687e-05
11.750	17.750	7.9753e-05
11.750	18.000	1.2560e-04
11.750	18.250	1.9588e-04
11.750	18.500	3.0107e-04
11.750	18.750	4.5416e-04
11.750	19.000	6.7786e-04
11.750	19.250	9.9177e-04
11.750	19.500	1.4374e-03
11.750	19.750	2.0639e-03
11.750	20.000	2.9637e-03
11.750	20.250	4.2310e-03
11.750	20.500	5.9734e-03
11.750	20.750	6.8681e-03
11.750	21.000	6.9675e-03
11.750	21.250	7.1159e-03
11.750	21.500	7.3863e-03
11.750	21.750	7.5498e-03
11.750	22.000	7.5631e-03
11.750	22.250	7.5735e-03
11.750	22.500	7.5809e-03
11.750	22.750	7.5855e-03
11.750	23.000	7.5893e-03
11.750	23.250	7.5920e-03
11.750	23.500	7.5932e-03
11.750	23.750	7.5942e-03
11.750	24.000	7.5949e-03
12.000	17.000	2.2305e-05
12.000	17.250	2.8477e-05
12.000	17.500	3.9342e-05
12.000	17.750	5.8519e-05
12.000	18.000	8.9712e-05
12.000	18.250	1.3877e-04
12.000	18.500	2.1276e-04
12.000	18.750	3.2288e-04
12.000	19.000	4.8395e-04
12.000	19.250	7.1053e-04
12.000	19.500	1.0322e-03
12.000	19.750	1.4871e-03
12.000	20.000	2.1351e-03
12.000	20.250	3.0621e-03
12.000	20.500	4.3751e-03
12.000	20.750	6.1686e-03
12.000	21.000	6.8558e-03
12.000	21.250	6.9828e-03
12.000	21.500	7.1719e-03
12.000	21.750	7.4793e-03
12.000	22.000	7.5458e-03
12.000	22.250	7.5595e-03
12.000	22.500	7.5709e-03
12.000	22.750	7.5790e-03
12.000	23.000	7.5840e-03
12.000	23.250	7.5884e-03
12.000	23.500	7.5918e-03
12.000	23.750	7.5930e-03
12.000	24.000	7.5942e-03
12.250	17.000	1.8848e-05
12.250	17.250	2.3128e-05
12.250	17.500	3.0453e-05
12.250	17.750	4.3210e-05
12.250	18.000	6.4280e-05
12.250	18.250	9.8189e-05
12.250	18.500	1.5095e-04
12.250	18.750	2.2988e-04
12.250	19.000	3.4494e-04
12.250	19.250	5.0724e-04
12.250	19.500	7.3720e-04
12.250	19.750	1.0647e-03
12.250	20.000	1.5277e-03
12.250	20.250	2.1935e-03
12.250	20.500	3.1509e-03
12.250	20.750	4.5196e-03
12.250	21.000	6.3095e-03
12.250	21.250	6.8474e-03
12.250	21.500	7.0148e-03
12.250	21.750	7.2400e-03
12.250	22.000	7.5198e-03
12.250	22.250	7.5402e-03
12.250	22.500	7.5551e-03
12.250	22.750	7.5674e-03
12.250	23.000	7.5763e-03
12.250	23.250	7.5820e-03
12.250	23.500	7.5872e-03
12.250	23.750	7.5914e-03
12.250	24.000	7.5928e-03
12.500	17.000	1.6214e-05
12.500	17.250	1.9177e-05
12.500	17.500	2.4033e-05
12.500	17.750	3.2428e-05
12.500	18.000	4.6749e-05
12.500	18.250	7.0288e-05
12.500	18.500	1.0765e-04
12.500	18.750	1.6362e-04
12.500	19.000	2.4601e-04
12.500	19.250	3.6272e-04
12.500	19.500	5.2708e-04
12.500	19.750	7.6099e-04
12.500	20.000	1.0929e-03
12.500	20.250	1.5654e-03
12.500	20.500	2.2466e-03
12.500	20.750	3.2324e-03
12.500	21.000	4.6507e-03
12.500	21.250	6.5333e-03
12.500	21.500	6.8453e-03
12.500	21.750	7.0463e-03
12.500	22.000	7.3171e-03
12.500	22.250	7.5120e-03
12.500	22.500	7.5323e-03
12.500	22.750	7.5488e-03
12.500	23.000	7.5626e-03
12.500	23.250	7.5724e-03
12.500	23.500	7.5790e-03
12.500	23.750	7.5855e-03
12.500	24.000	7.5908e-03
12.750	17.000	1.3745e-05
12.750	17.250	1.6132e-05
12.750	17.500	1.9424e-05
12.750	17.750	2.5103e-05
12.750	18.000	3.4897e-05
12.750	18.250	5.1276e-05
12.750	18.500	7.7284e-05
12.750	18.750	1.1712e-04
12.750	19.000	1.7547e-04
12.750	19.250	2.5926e-04
12.750	19.500	3.7646e-04
12.750	19.750	5.4296e-04
12.750	20.000	7.7984e-04
12.750	20.250	1.1189e-03
12.750	20.500	1.5931e-03
12.750	20.750	2.2967e-03
12.750	21.000	3.3175e-03
12.750	21.250	4.8072e-03
12.750	21.500	6.5159e-03
12.750	21.750	6.8313e-03
12.750	22.000	7.0836e-03
12.750	22.250	7.3757e-03
12.750	22.500	7.4986e-03
12.750	22.750	7.5212e-03
12.750	23.000	7.5401e-03
12.750	23.250	7.5556e-03
12.750	23.500	7.5667e-03
12.750	23.750	7.5746e-03
12.750	24.000	7.5829e-03
13.000	17.000	3.6214e-06
13.000	17.250	7.1605e-06
13.000	17.500	1.6132e-05
13.000	17.750	2.0329e-05
13.000	18.000	2.6996e-05
13.000	18.250	3.8189e-05
13.000	18.500	5.6296e-05
13.000	18.750	8.4198e-05
13.000	19.000	1.2535e-04
13.000	19.250	1.8510e-04
13.000	19.500	2.6930e-04
13.000	19.750	3.8807e-04
13.000	20.000	5.5490e-04
13.000	20.250	7.9449e-04
13.000	20.500	1.1378e-03
13.000	20.750	1.6338e-03
13.000	21.000	2.3540e-03
13.000	21.250	3.4244e-03
13.000	21.500	4.8986e-03
13.000	21.750	6.4784e-03
13.000	22.000	6.8198e-03
13.000	22.250	7.1039e-03
13.000	22.500	7.3902e-03
13.000	22.750	7.4778e-03
13.000	23.000	7.5049e-03
13.000	23.250	7.5272e-03
13.000	23.500	7.5453e-03
13.000	23.750	7.5582e-03
13.000	24.000	7.5677e-03
13.250	17.000	2.1399e-06
13.250	17.250	4.1152e-06
13.250	17.500	9.5473e-06
13.250	17.750	1.6214e-05
13.250	18.000	2.1481e-05
13.250	18.250	2.9218e-05
13.250	18.500	4.1728e-05
13.250	18.750	6.1070e-05
13.250	19.000	9.0041e-05
13.250	19.250	1.3202e-04
13.250	19.500	1.9202e-04
13.250	19.750	2.7679e-04
13.250	20.000	3.9671e-04
13.250	20.250	5.6733e-04
13.250	20.500	8.1029e-04
13.250	20.750	1.1596e-03
13.250	21.000	1.6741e-03
13.250	21.250	2.4196e-03
13.250	21.500	3.4780e-03
13.250	21.750	4.9909e-03
13.250	22.000	6.4072e-03
13.250	22.250	6.7457e-03
13.250	22.500	7.0767e-03
13.250	22.750	7.3553e-03
13.250	23.000	7.4457e-03
13.250	23.250	7.4798e-03
13.250	23.500	7.5080e-03
13.250	23.750	7.5299e-03
13.250	24.000	7.5451e-03
13.500	17.000	1.2346e-06
13.500	17.250	2.4691e-06
13.500	17.500	5.4321e-06
13.500	17.750	1.0700e-05
13.500	18.000	1.7613e-05
13.500	18.250	2.2963e-05
13.500	18.500	3.1358e-05
13.500	18.750	4.4691e-05
13.500	19.000	6.4856e-05
13.500	19.250	9.4897e-05
13.500	19.500	1.3728e-04
13.500	19.750	1.9753e-04
13.500	20.000	2.8247e-04
13.500	20.250	4.0453e-04
13.500	20.500	5.7663e-04
13.500	20.750	8.2453e-04
13.500	21.000	1.1838e-03
13.500	21.250	1.7089e-03
13.500	21.500	2.4434e-03
13.500	21.750	3.5454e-03
13.500	22.000	5.0288e-03
13.500	22.250	6.2505e-03
13.500	22.500	6.6316e-03
13.500	22.750	6.9965e-03
13.500	23.000	7.2866e-03
13.500	23.250	7.3960e-03
13.500	23.500	7.4416e-03
13.500	23.750	7.4788e-03
13.500	24.000	7.5059e-03
13.750	17.000	1.0000e-07
13.750	17.250	1.4815e-06
13.750	17.500	3.2922e-06
13.750	17.750	6.5844e-06
13.750	18.000	1.2428e-05
13.750	18.250	1.7860e-05
13.750	18.500	2.4444e-05
13.750	18.750	3.3333e-05
13.750	19.000	4.7078e-05
13.750	19.250	6.7737e-05
13.750	19.500	9.7860e-05
13.750	19.750	1.4066e-04
13.750	20.000	2.0156e-04
13.750	20.250	2.8790e-04
13.750	20.500	4.1160e-04
13.750	20.750	5.8757e-04
13.750	21.000	8.4255e-04
13.750	21.250	1.2113e-03
13.750	21.500	1.7298e-03
13.750	21.750	2.5061e-03
13.750	22.000	3.6181e-03
13.750	22.250	5.0411e-03
13.750	22.500	6.0544e-03
13.750	22.750	6.4706e-03
13.750	23.000	6.8637e-03
13.750	23.250	7.1949e-03
13.750	23.500	7.3212e-03
13.750	23.750	7.3843e-03
13.750	24.000	7.4345e-03
14.000	17.000	1.0000e-07
14.000	17.250	9.0535e-07
14.000	17.500	1.9753e-06
14.000	17.750	3.9506e-06
14.000	18.000	7.9835e-06
14.000	18.250	1.3992e-05
14.000	18.500	1.9671e-05
14.000	18.750	2.5679e-05
14.000	19.000	3.4979e-05
14.000	19.250	4.9053e-05
14.000	19.500	6.9794e-05
14.000	19.750	1.0016e-04
14.000	20.000	1.4354e-04
14.000	20.250	2.0494e-04
14.000	20.500	2.9333e-04
14.000	20.750	4.1926e-04
14.000	21.000	6.0099e-04
14.000	21.250	8.6461e-04
14.000	21.500	1.2323e-03
14.000	21.750	1.7863e-03
14.000	22.000	2.5902e-03
14.000	22.250	3.6945e-03
14.000	22.500	4.9979e-03
14.000	22.750	5.8167e-03
14.000	23.000	6.2930e-03
14.000	23.250	6.7033e-03
14.000	23.500	7.0750e-03
14.000	23.750	7.2110e-03
14.000	24.000	7.2998e-03
