InwC 1458.33A  relative to Inci 1215.00A scaled to 1215A.
Hden   Phi(H)  Eq_Width (A)
 7.000	17.000	7.3256e-02
 7.000	17.250	7.1281e-02
 7.000	17.500	7.4660e-02
 7.000	17.750	7.6288e-02
 7.000	18.000	7.6325e-02
 7.000	18.250	7.6376e-02
 7.000	18.500	7.6385e-02
 7.000	18.750	7.6395e-02
 7.000	19.000	7.6404e-02
 7.000	19.250	7.6411e-02
 7.000	19.500	7.6413e-02
 7.000	19.750	7.6415e-02
 7.000	20.000	7.6415e-02
 7.000	20.250	7.6415e-02
 7.000	20.500	7.6416e-02
 7.000	20.750	7.6416e-02
 7.000	21.000	7.6416e-02
 7.000	21.250	7.6416e-02
 7.000	21.500	7.6416e-02
 7.000	21.750	7.6416e-02
 7.000	22.000	7.6417e-02
 7.000	22.250	7.6417e-02
 7.000	22.500	7.6418e-02
 7.000	22.750	7.6426e-02
 7.000	23.000	7.6419e-02
 7.000	23.250	7.6420e-02
 7.000	23.500	7.6420e-02
 7.000	23.750	7.6420e-02
 7.000	24.000	7.6421e-02
 7.250	17.000	7.6207e-02
 7.250	17.250	7.2969e-02
 7.250	17.500	7.1307e-02
 7.250	17.750	7.4682e-02
 7.250	18.000	7.6289e-02
 7.250	18.250	7.6325e-02
 7.250	18.500	7.6377e-02
 7.250	18.750	7.6385e-02
 7.250	19.000	7.6395e-02
 7.250	19.250	7.6404e-02
 7.250	19.500	7.6411e-02
 7.250	19.750	7.6413e-02
 7.250	20.000	7.6414e-02
 7.250	20.250	7.6415e-02
 7.250	20.500	7.6415e-02
 7.250	20.750	7.6415e-02
 7.250	21.000	7.6416e-02
 7.250	21.250	7.6415e-02
 7.250	21.500	7.6416e-02
 7.250	21.750	7.6416e-02
 7.250	22.000	7.6416e-02
 7.250	22.250	7.6416e-02
 7.250	22.500	7.6416e-02
 7.250	22.750	7.6416e-02
 7.250	23.000	7.6417e-02
 7.250	23.250	7.6417e-02
 7.250	23.500	7.6417e-02
 7.250	23.750	7.6417e-02
 7.250	24.000	7.6417e-02
 7.500	17.000	8.0096e-02
 7.500	17.250	7.5719e-02
 7.500	17.500	7.2688e-02
 7.500	17.750	7.1331e-02
 7.500	18.000	7.4703e-02
 7.500	18.250	7.6288e-02
 7.500	18.500	7.6325e-02
 7.500	18.750	7.6376e-02
 7.500	19.000	7.6385e-02
 7.500	19.250	7.6395e-02
 7.500	19.500	7.6404e-02
 7.500	19.750	7.6411e-02
 7.500	20.000	7.6413e-02
 7.500	20.250	7.6415e-02
 7.500	20.500	7.6415e-02
 7.500	20.750	7.6415e-02
 7.500	21.000	7.6415e-02
 7.500	21.250	7.6415e-02
 7.500	21.500	7.6415e-02
 7.500	21.750	7.6416e-02
 7.500	22.000	7.6415e-02
 7.500	22.250	7.6416e-02
 7.500	22.500	7.6416e-02
 7.500	22.750	7.6416e-02
 7.500	23.000	7.6416e-02
 7.500	23.250	7.6416e-02
 7.500	23.500	7.6416e-02
 7.500	23.750	7.6416e-02
 7.500	24.000	7.6416e-02
 7.750	17.000	8.3809e-02
 7.750	17.250	7.9674e-02
 7.750	17.500	7.5150e-02
 7.750	17.750	7.2343e-02
 7.750	18.000	7.1349e-02
 7.750	18.250	7.4723e-02
 7.750	18.500	7.6289e-02
 7.750	18.750	7.6325e-02
 7.750	19.000	7.6376e-02
 7.750	19.250	7.6385e-02
 7.750	19.500	7.6395e-02
 7.750	19.750	7.6404e-02
 7.750	20.000	7.6411e-02
 7.750	20.250	7.6413e-02
 7.750	20.500	7.6415e-02
 7.750	20.750	7.6415e-02
 7.750	21.000	7.6415e-02
 7.750	21.250	7.6415e-02
 7.750	21.500	7.6415e-02
 7.750	21.750	7.6416e-02
 7.750	22.000	7.6415e-02
 7.750	22.250	7.6415e-02
 7.750	22.500	7.6415e-02
 7.750	22.750	7.6415e-02
 7.750	23.000	7.6416e-02
 7.750	23.250	7.6416e-02
 7.750	23.500	7.6416e-02
 7.750	23.750	7.6416e-02
 7.750	24.000	7.6416e-02
 8.000	17.000	8.6515e-02
 8.000	17.250	8.3541e-02
 8.000	17.500	7.9224e-02
 8.000	17.750	7.4548e-02
 8.000	18.000	7.1946e-02
 8.000	18.250	7.1352e-02
 8.000	18.500	7.4727e-02
 8.000	18.750	7.6289e-02
 8.000	19.000	7.6326e-02
 8.000	19.250	7.6377e-02
 8.000	19.500	7.6385e-02
 8.000	19.750	7.6395e-02
 8.000	20.000	7.6404e-02
 8.000	20.250	7.6411e-02
 8.000	20.500	7.6413e-02
 8.000	20.750	7.6414e-02
 8.000	21.000	7.6415e-02
 8.000	21.250	7.6415e-02
 8.000	21.500	7.6415e-02
 8.000	21.750	7.6415e-02
 8.000	22.000	7.6416e-02
 8.000	22.250	7.6415e-02
 8.000	22.500	7.6415e-02
 8.000	22.750	7.6415e-02
 8.000	23.000	7.6415e-02
 8.000	23.250	7.6415e-02
 8.000	23.500	7.6415e-02
 8.000	23.750	7.6415e-02
 8.000	24.000	7.6416e-02
 8.250	17.000	8.8314e-02
 8.250	17.250	8.6235e-02
 8.250	17.500	8.3066e-02
 8.250	17.750	7.8413e-02
 8.250	18.000	7.3496e-02
 8.250	18.250	7.1268e-02
 8.250	18.500	7.1363e-02
 8.250	18.750	7.4747e-02
 8.250	19.000	7.6288e-02
 8.250	19.250	7.6326e-02
 8.250	19.500	7.6376e-02
 8.250	19.750	7.6385e-02
 8.250	20.000	7.6395e-02
 8.250	20.250	7.6404e-02
 8.250	20.500	7.6411e-02
 8.250	20.750	7.6413e-02
 8.250	21.000	7.6414e-02
 8.250	21.250	7.6415e-02
 8.250	21.500	7.6415e-02
 8.250	21.750	7.6415e-02
 8.250	22.000	7.6415e-02
 8.250	22.250	7.6415e-02
 8.250	22.500	7.6415e-02
 8.250	22.750	7.6416e-02
 8.250	23.000	7.6416e-02
 8.250	23.250	7.6416e-02
 8.250	23.500	7.6415e-02
 8.250	23.750	7.6415e-02
 8.250	24.000	7.6416e-02
 8.500	17.000	8.9535e-02
 8.500	17.250	8.8035e-02
 8.500	17.500	8.5771e-02
 8.500	17.750	8.2228e-02
 8.500	18.000	7.7092e-02
 8.500	18.250	7.1928e-02
 8.500	18.500	7.0370e-02
 8.500	18.750	7.1362e-02
 8.500	19.000	7.4768e-02
 8.500	19.250	7.6288e-02
 8.500	19.500	7.6326e-02
 8.500	19.750	7.6376e-02
 8.500	20.000	7.6385e-02
 8.500	20.250	7.6395e-02
 8.500	20.500	7.6404e-02
 8.500	20.750	7.6411e-02
 8.500	21.000	7.6413e-02
 8.500	21.250	7.6414e-02
 8.500	21.500	7.6415e-02
 8.500	21.750	7.6415e-02
 8.500	22.000	7.6415e-02
 8.500	22.250	7.6415e-02
 8.500	22.500	7.6415e-02
 8.500	22.750	7.6416e-02
 8.500	23.000	7.6415e-02
 8.500	23.250	7.6415e-02
 8.500	23.500	7.6415e-02
 8.500	23.750	7.6415e-02
 8.500	24.000	7.6415e-02
 8.750	17.000	9.0369e-02
 8.750	17.250	8.9247e-02
 8.750	17.500	8.7562e-02
 8.750	17.750	8.4942e-02
 8.750	18.000	8.0777e-02
 8.750	18.250	7.4924e-02
 8.750	18.500	7.0249e-02
 8.750	18.750	6.9510e-02
 8.750	19.000	7.1356e-02
 8.750	19.250	7.4786e-02
 8.750	19.500	7.6287e-02
 8.750	19.750	7.6326e-02
 8.750	20.000	7.6376e-02
 8.750	20.250	7.6385e-02
 8.750	20.500	7.6395e-02
 8.750	20.750	7.6404e-02
 8.750	21.000	7.6411e-02
 8.750	21.250	7.6413e-02
 8.750	21.500	7.6414e-02
 8.750	21.750	7.6415e-02
 8.750	22.000	7.6415e-02
 8.750	22.250	7.6415e-02
 8.750	22.500	7.6415e-02
 8.750	22.750	7.6415e-02
 8.750	23.000	7.6416e-02
 8.750	23.250	7.6415e-02
 8.750	23.500	7.6415e-02
 8.750	23.750	7.6415e-02
 8.750	24.000	7.6416e-02
 9.000	17.000	9.0925e-02
 9.000	17.250	9.0055e-02
 9.000	17.500	8.8742e-02
 9.000	17.750	8.6704e-02
 9.000	18.000	8.3435e-02
 9.000	18.250	7.8452e-02
 9.000	18.500	7.2328e-02
 9.000	18.750	6.8328e-02
 9.000	19.000	6.8558e-02
 9.000	19.250	7.1341e-02
 9.000	19.500	7.4798e-02
 9.000	19.750	7.6286e-02
 9.000	20.000	7.6326e-02
 9.000	20.250	7.6376e-02
 9.000	20.500	7.6385e-02
 9.000	20.750	7.6395e-02
 9.000	21.000	7.6404e-02
 9.000	21.250	7.6411e-02
 9.000	21.500	7.6413e-02
 9.000	21.750	7.6414e-02
 9.000	22.000	7.6415e-02
 9.000	22.250	7.6415e-02
 9.000	22.500	7.6415e-02
 9.000	22.750	7.6415e-02
 9.000	23.000	7.6415e-02
 9.000	23.250	7.6416e-02
 9.000	23.500	7.6415e-02
 9.000	23.750	7.6415e-02
 9.000	24.000	7.6415e-02
 9.250	17.000	9.1294e-02
 9.250	17.250	9.0585e-02
 9.250	17.500	8.9511e-02
 9.250	17.750	8.7837e-02
 9.250	18.000	8.5173e-02
 9.250	18.250	8.1116e-02
 9.250	18.500	7.5596e-02
 9.250	18.750	6.9808e-02
 9.250	19.000	6.7070e-02
 9.250	19.250	6.8189e-02
 9.250	19.500	7.1324e-02
 9.250	19.750	7.4799e-02
 9.250	20.000	7.6283e-02
 9.250	20.250	7.6326e-02
 9.250	20.500	7.6376e-02
 9.250	20.750	7.6385e-02
 9.250	21.000	7.6395e-02
 9.250	21.250	7.6404e-02
 9.250	21.500	7.6403e-02
 9.250	21.750	7.6376e-02
 9.250	22.000	7.6375e-02
 9.250	22.250	7.6378e-02
 9.250	22.500	7.6414e-02
 9.250	22.750	7.6415e-02
 9.250	23.000	7.6415e-02
 9.250	23.250	7.6415e-02
 9.250	23.500	7.6415e-02
 9.250	23.750	7.6415e-02
 9.250	24.000	7.6415e-02
 9.500	17.000	9.1530e-02
 9.500	17.250	9.0925e-02
 9.500	17.500	9.0003e-02
 9.500	17.750	8.8562e-02
 9.500	18.000	8.6279e-02
 9.500	18.250	8.2855e-02
 9.500	18.500	7.8168e-02
 9.500	18.750	7.2376e-02
 9.500	19.000	6.7020e-02
 9.500	19.250	6.6168e-02
 9.500	19.500	6.8410e-02
 9.500	19.750	7.1313e-02
 9.500	20.000	7.4788e-02
 9.500	20.250	7.6278e-02
 9.500	20.500	7.6325e-02
 9.500	20.750	7.6375e-02
 9.500	21.000	7.6374e-02
 9.500	21.250	7.6363e-02
 9.500	21.500	7.6364e-02
 9.500	21.750	7.6366e-02
 9.500	22.000	7.6353e-02
 9.500	22.250	7.6342e-02
 9.500	22.500	7.6345e-02
 9.500	22.750	7.6346e-02
 9.500	23.000	7.6345e-02
 9.500	23.250	7.6344e-02
 9.500	23.500	7.6368e-02
 9.500	23.750	7.6368e-02
 9.500	24.000	7.6368e-02
 9.750	17.000	9.1676e-02
 9.750	17.250	9.1139e-02
 9.750	17.500	9.0317e-02
 9.750	17.750	8.9012e-02
 9.750	18.000	8.6971e-02
 9.750	18.250	8.3874e-02
 9.750	18.500	7.9707e-02
 9.750	18.750	7.4549e-02
 9.750	19.000	6.8845e-02
 9.750	19.250	6.4855e-02
 9.750	19.500	6.5453e-02
 9.750	19.750	6.8679e-02
 9.750	20.000	7.1338e-02
 9.750	20.250	7.4765e-02
 9.750	20.500	7.6270e-02
 9.750	20.750	7.6323e-02
 9.750	21.000	7.6375e-02
 9.750	21.250	7.6381e-02
 9.750	21.500	7.6382e-02
 9.750	21.750	7.6368e-02
 9.750	22.000	7.6369e-02
 9.750	22.250	7.6362e-02
 9.750	22.500	7.6349e-02
 9.750	22.750	7.6342e-02
 9.750	23.000	7.6344e-02
 9.750	23.250	7.6345e-02
 9.750	23.500	7.6346e-02
 9.750	23.750	7.6346e-02
 9.750	24.000	7.6346e-02
10.000	17.000	9.1753e-02
10.000	17.250	9.1265e-02
10.000	17.500	9.0514e-02
10.000	17.750	8.9289e-02
10.000	18.000	8.7342e-02
10.000	18.250	8.4389e-02
10.000	18.500	8.0500e-02
10.000	18.750	7.5735e-02
10.000	19.000	7.0402e-02
10.000	19.250	6.5086e-02
10.000	19.500	6.2947e-02
10.000	19.750	6.5506e-02
10.000	20.000	6.8820e-02
10.000	20.250	7.1361e-02
10.000	20.500	7.4747e-02
10.000	20.750	7.6257e-02
10.000	21.000	7.6320e-02
10.000	21.250	7.6375e-02
10.000	21.500	7.6384e-02
10.000	21.750	7.6391e-02
10.000	22.000	7.6382e-02
10.000	22.250	7.6371e-02
10.000	22.500	7.6368e-02
10.000	22.750	7.6359e-02
10.000	23.000	7.6350e-02
10.000	23.250	7.6345e-02
10.000	23.500	7.6342e-02
10.000	23.750	7.6343e-02
10.000	24.000	7.6343e-02
10.250	17.000	9.1772e-02
10.250	17.250	9.1327e-02
10.250	17.500	9.0610e-02
10.250	17.750	8.9422e-02
10.250	18.000	8.7461e-02
10.250	18.250	8.4570e-02
10.250	18.500	8.0792e-02
10.250	18.750	7.6246e-02
10.250	19.000	7.1049e-02
10.250	19.250	6.5931e-02
10.250	19.500	6.2854e-02
10.250	19.750	6.2970e-02
10.250	20.000	6.6146e-02
10.250	20.250	6.8885e-02
10.250	20.500	7.1403e-02
10.250	20.750	7.4762e-02
10.250	21.000	7.6241e-02
10.250	21.250	7.6315e-02
10.250	21.500	7.6375e-02
10.250	21.750	7.6384e-02
10.250	22.000	7.6394e-02
10.250	22.250	7.6397e-02
10.250	22.500	7.6372e-02
10.250	22.750	7.6371e-02
10.250	23.000	7.6366e-02
10.250	23.250	7.6360e-02
10.250	23.500	7.6355e-02
10.250	23.750	7.6351e-02
10.250	24.000	7.6350e-02
10.500	17.000	9.1726e-02
10.500	17.250	9.1325e-02
10.500	17.500	9.0629e-02
10.500	17.750	8.9426e-02
10.500	18.000	8.7399e-02
10.500	18.250	8.4446e-02
10.500	18.500	8.0807e-02
10.500	18.750	7.6658e-02
10.500	19.000	7.2502e-02
10.500	19.250	6.8763e-02
10.500	19.500	6.5305e-02
10.500	19.750	6.2947e-02
10.500	20.000	6.3384e-02
10.500	20.250	6.6600e-02
10.500	20.500	6.8914e-02
10.500	20.750	7.1437e-02
10.500	21.000	7.4816e-02
10.500	21.250	7.6219e-02
10.500	21.500	7.6307e-02
10.500	21.750	7.6372e-02
10.500	22.000	7.6384e-02
10.500	22.250	7.6394e-02
10.500	22.500	7.6402e-02
10.500	22.750	7.6379e-02
10.500	23.000	7.6373e-02
10.500	23.250	7.6371e-02
10.500	23.500	7.6367e-02
10.500	23.750	7.6364e-02
10.500	24.000	7.6361e-02
10.750	17.000	9.1573e-02
10.750	17.250	9.1236e-02
10.750	17.500	9.0542e-02
10.750	17.750	8.9242e-02
10.750	18.000	8.7124e-02
10.750	18.250	8.4210e-02
10.750	18.500	8.0760e-02
10.750	18.750	7.7180e-02
10.750	19.000	7.4063e-02
10.750	19.250	7.1265e-02
10.750	19.500	6.8174e-02
10.750	19.750	6.4920e-02
10.750	20.000	6.2739e-02
10.750	20.250	6.3395e-02
10.750	20.500	6.6780e-02
10.750	20.750	6.8999e-02
10.750	21.000	7.1516e-02
10.750	21.250	7.4946e-02
10.750	21.500	7.6195e-02
10.750	21.750	7.6298e-02
10.750	22.000	7.6366e-02
10.750	22.250	7.6384e-02
10.750	22.500	7.6394e-02
10.750	22.750	7.6403e-02
10.750	23.000	7.6398e-02
10.750	23.250	7.6374e-02
10.750	23.500	7.6374e-02
10.750	23.750	7.6372e-02
10.750	24.000	7.6370e-02
11.000	17.000	9.1257e-02
11.000	17.250	9.1021e-02
11.000	17.500	9.0288e-02
11.000	17.750	8.8866e-02
11.000	18.000	8.6625e-02
11.000	18.250	8.3673e-02
11.000	18.500	8.0358e-02
11.000	18.750	7.7351e-02
11.000	19.000	7.5086e-02
11.000	19.250	7.3111e-02
11.000	19.500	7.0711e-02
11.000	19.750	6.7633e-02
11.000	20.000	6.4256e-02
11.000	20.250	6.2093e-02
11.000	20.500	6.3131e-02
11.000	20.750	6.6640e-02
11.000	21.000	6.9021e-02
11.000	21.250	7.1674e-02
11.000	21.500	7.5193e-02
11.000	21.750	7.6161e-02
11.000	22.000	7.6286e-02
11.000	22.250	7.6363e-02
11.000	22.500	7.6383e-02
11.000	22.750	7.6394e-02
11.000	23.000	7.6403e-02
11.000	23.250	7.6407e-02
11.000	23.500	7.6381e-02
11.000	23.750	7.6375e-02
11.000	24.000	7.6374e-02
11.250	17.000	9.0854e-02
11.250	17.250	9.0590e-02
11.250	17.500	8.9798e-02
11.250	17.750	8.8206e-02
11.250	18.000	8.5715e-02
11.250	18.250	8.2573e-02
11.250	18.500	7.9464e-02
11.250	18.750	7.6994e-02
11.250	19.000	7.5519e-02
11.250	19.250	7.4234e-02
11.250	19.500	7.2521e-02
11.250	19.750	7.0073e-02
11.250	20.000	6.6790e-02
11.250	20.250	6.3188e-02
11.250	20.500	6.1102e-02
11.250	20.750	6.2747e-02
11.250	21.000	6.6618e-02
11.250	21.250	6.9098e-02
11.250	21.500	7.1989e-02
11.250	21.750	7.5514e-02
11.250	22.000	7.6118e-02
11.250	22.250	7.6272e-02
11.250	22.500	7.6352e-02
11.250	22.750	7.6382e-02
11.250	23.000	7.6394e-02
11.250	23.250	7.6403e-02
11.250	23.500	7.6410e-02
11.250	23.750	7.6400e-02
11.250	24.000	7.6377e-02
11.500	17.000	9.0529e-02
11.500	17.250	8.9993e-02
11.500	17.500	8.9003e-02
11.500	17.750	8.7097e-02
11.500	18.000	8.4157e-02
11.500	18.250	8.0706e-02
11.500	18.500	7.7840e-02
11.500	18.750	7.6117e-02
11.500	19.000	7.5345e-02
11.500	19.250	7.4633e-02
11.500	19.500	7.3593e-02
11.500	19.750	7.1876e-02
11.500	20.000	6.9297e-02
11.500	20.250	6.5736e-02
11.500	20.500	6.1910e-02
11.500	20.750	5.9936e-02
11.500	21.000	6.1974e-02
11.500	21.250	6.6587e-02
11.500	21.500	6.9319e-02
11.500	21.750	7.2589e-02
11.500	22.000	7.5629e-02
11.500	22.250	7.6068e-02
11.500	22.500	7.6255e-02
11.500	22.750	7.6350e-02
11.500	23.000	7.6380e-02
11.500	23.250	7.6393e-02
11.500	23.500	7.6403e-02
11.500	23.750	7.6411e-02
11.500	24.000	7.6409e-02
11.750	17.000	9.0267e-02
11.750	17.250	8.9337e-02
11.750	17.500	8.7871e-02
11.750	17.750	8.5347e-02
11.750	18.000	8.1655e-02
11.750	18.250	7.8051e-02
11.750	18.500	7.5703e-02
11.750	18.750	7.4864e-02
11.750	19.000	7.4593e-02
11.750	19.250	7.4392e-02
11.750	19.500	7.3922e-02
11.750	19.750	7.2938e-02
11.750	20.000	7.1166e-02
11.750	20.250	6.8376e-02
11.750	20.500	6.4510e-02
11.750	20.750	6.0421e-02
11.750	21.000	5.8756e-02
11.750	21.250	6.1705e-02
11.750	21.500	6.6628e-02
11.750	21.750	6.9692e-02
11.750	22.000	7.3318e-02
11.750	22.250	7.5532e-02
11.750	22.500	7.6001e-02
11.750	22.750	7.6230e-02
11.750	23.000	7.6343e-02
11.750	23.250	7.6378e-02
11.750	23.500	7.6392e-02
11.750	23.750	7.6403e-02
11.750	24.000	7.6411e-02
12.000	17.000	8.9887e-02
12.000	17.250	8.8489e-02
12.000	17.500	8.6237e-02
12.000	17.750	8.2674e-02
12.000	18.000	7.8278e-02
12.000	18.250	7.4822e-02
12.000	18.500	7.3313e-02
12.000	18.750	7.3061e-02
12.000	19.000	7.3269e-02
12.000	19.250	7.3520e-02
12.000	19.500	7.3575e-02
12.000	19.750	7.3243e-02
12.000	20.000	7.2273e-02
12.000	20.250	7.0371e-02
12.000	20.500	6.7333e-02
12.000	20.750	6.3139e-02
12.000	21.000	5.8910e-02
12.000	21.250	5.7757e-02
12.000	21.500	6.1921e-02
12.000	21.750	6.6826e-02
12.000	22.000	7.0182e-02
12.000	22.250	7.3899e-02
12.000	22.500	7.5423e-02
12.000	22.750	7.5940e-02
12.000	23.000	7.6195e-02
12.000	23.250	7.6333e-02
12.000	23.500	7.6376e-02
12.000	23.750	7.6391e-02
12.000	24.000	7.6402e-02
12.250	17.000	7.8960e-02
12.250	17.250	8.6818e-02
12.250	17.500	8.3495e-02
12.250	17.750	7.8750e-02
12.250	18.000	7.4105e-02
12.250	18.250	7.1271e-02
12.250	18.500	7.0448e-02
12.250	18.750	7.0794e-02
12.250	19.000	7.1417e-02
12.250	19.250	7.2074e-02
12.250	19.500	7.2620e-02
12.250	19.750	7.2866e-02
12.250	20.000	7.2562e-02
12.250	20.250	7.1546e-02
12.250	20.500	6.9457e-02
12.250	20.750	6.6145e-02
12.250	21.000	6.1660e-02
12.250	21.250	5.7374e-02
12.250	21.500	5.6928e-02
12.250	21.750	6.2224e-02
12.250	22.000	6.7135e-02
12.250	22.250	7.0812e-02
12.250	22.500	7.4159e-02
12.250	22.750	7.5335e-02
12.250	23.000	7.5877e-02
12.250	23.250	7.6157e-02
12.250	23.500	7.6319e-02
12.250	23.750	7.6373e-02
12.250	24.000	7.6389e-02
12.500	17.000	4.0533e-02
12.500	17.250	7.7253e-02
12.500	17.500	7.8727e-02
12.500	17.750	7.3560e-02
12.500	18.000	6.9303e-02
12.500	18.250	6.6789e-02
12.500	18.500	6.6996e-02
12.500	18.750	6.7851e-02
12.500	19.000	6.8958e-02
12.500	19.250	7.0087e-02
12.500	19.500	7.1100e-02
12.500	19.750	7.1830e-02
12.500	20.000	7.2145e-02
12.500	20.250	7.1832e-02
12.500	20.500	7.0701e-02
12.500	20.750	6.8409e-02
12.500	21.000	6.4783e-02
12.500	21.250	6.0004e-02
12.500	21.500	5.5986e-02
12.500	21.750	5.6548e-02
12.500	22.000	6.2708e-02
12.500	22.250	6.7582e-02
12.500	22.500	7.1448e-02
12.500	22.750	7.4250e-02
12.500	23.000	7.5261e-02
12.500	23.250	7.5812e-02
12.500	23.500	7.6117e-02
12.500	23.750	7.6302e-02
12.500	24.000	7.6370e-02
12.750	17.000	1.9662e-02
12.750	17.250	4.2262e-02
12.750	17.500	7.0487e-02
12.750	17.750	6.6620e-02
12.750	18.000	6.2480e-02
12.750	18.250	6.1857e-02
12.750	18.500	6.2767e-02
12.750	18.750	6.4139e-02
12.750	19.000	6.5803e-02
12.750	19.250	6.7420e-02
12.750	19.500	6.8955e-02
12.750	19.750	7.0212e-02
12.750	20.000	7.1047e-02
12.750	20.250	7.1374e-02
12.750	20.500	7.0975e-02
12.750	20.750	6.9659e-02
12.750	21.000	6.7080e-02
12.750	21.250	6.3023e-02
12.750	21.500	5.8254e-02
12.750	21.750	5.4424e-02
12.750	22.000	5.6687e-02
12.750	22.250	6.3240e-02
12.750	22.500	6.8100e-02
12.750	22.750	7.1835e-02
12.750	23.000	7.4256e-02
12.750	23.250	7.5208e-02
12.750	23.500	7.5765e-02
12.750	23.750	7.6083e-02
12.750	24.000	7.6282e-02
13.000	17.000	3.3244e-03
13.000	17.250	7.5998e-03
13.000	17.500	2.6512e-02
13.000	17.750	4.6535e-02
13.000	18.000	5.2162e-02
13.000	18.250	5.6473e-02
13.000	18.500	5.7678e-02
13.000	18.750	5.9635e-02
13.000	19.000	6.1837e-02
13.000	19.250	6.4012e-02
13.000	19.500	6.6062e-02
13.000	19.750	6.7878e-02
13.000	20.000	6.9287e-02
13.000	20.250	7.0183e-02
13.000	20.500	7.0444e-02
13.000	20.750	6.9879e-02
13.000	21.000	6.8268e-02
13.000	21.250	6.5207e-02
13.000	21.500	6.0942e-02
13.000	21.750	5.5583e-02
13.000	22.000	5.2757e-02
13.000	22.250	5.7333e-02
13.000	22.500	6.3867e-02
13.000	22.750	6.8422e-02
13.000	23.000	7.2000e-02
13.000	23.250	7.4253e-02
13.000	23.500	7.5167e-02
13.000	23.750	7.5726e-02
13.000	24.000	7.6044e-02
13.250	17.000	2.0351e-03
13.250	17.250	3.7410e-03
13.250	17.500	8.7858e-03
13.250	17.750	1.9450e-02
13.250	18.000	3.5088e-02
13.250	18.250	4.3064e-02
13.250	18.500	5.2193e-02
13.250	18.750	5.4331e-02
13.250	19.000	5.7038e-02
13.250	19.250	5.9804e-02
13.250	19.500	6.2446e-02
13.250	19.750	6.4789e-02
13.250	20.000	6.6761e-02
13.250	20.250	6.8253e-02
13.250	20.500	6.9136e-02
13.250	20.750	6.9216e-02
13.250	21.000	6.8332e-02
13.250	21.250	6.6181e-02
13.250	21.500	6.2730e-02
13.250	21.750	5.7303e-02
13.250	22.000	5.1791e-02
13.250	22.250	5.1063e-02
13.250	22.500	5.8031e-02
13.250	22.750	6.3973e-02
13.250	23.000	6.8407e-02
13.250	23.250	7.2040e-02
13.250	23.500	7.4227e-02
13.250	23.750	7.5129e-02
13.250	24.000	7.5668e-02
13.500	17.000	1.2625e-03
13.500	17.250	2.2580e-03
13.500	17.500	4.8489e-03
13.500	17.750	1.0391e-02
13.500	18.000	2.1144e-02
13.500	18.250	3.4716e-02
13.500	18.500	4.1385e-02
13.500	18.750	4.8715e-02
13.500	19.000	5.1573e-02
13.500	19.250	5.4847e-02
13.500	19.500	5.8053e-02
13.500	19.750	6.0950e-02
13.500	20.000	6.3463e-02
13.500	20.250	6.5521e-02
13.500	20.500	6.6998e-02
13.500	20.750	6.7756e-02
13.500	21.000	6.7512e-02
13.500	21.250	6.6034e-02
13.500	21.500	6.3324e-02
13.500	21.750	5.8266e-02
13.500	22.000	5.1649e-02
13.500	22.250	4.6851e-02
13.500	22.500	4.9902e-02
13.500	22.750	5.8586e-02
13.500	23.000	6.4122e-02
13.500	23.250	6.8244e-02
13.500	23.500	7.1927e-02
13.500	23.750	7.4154e-02
13.500	24.000	7.5053e-02
13.750	17.000	7.6601e-04
13.750	17.250	1.4871e-03
13.750	17.500	3.0296e-03
13.750	17.750	5.5979e-03
13.750	18.000	1.2077e-02
13.750	18.250	2.2773e-02
13.750	18.500	3.3036e-02
13.750	18.750	3.9695e-02
13.750	19.000	4.5930e-02
13.750	19.250	4.9265e-02
13.750	19.500	5.2900e-02
13.750	19.750	5.6370e-02
13.750	20.000	5.9439e-02
13.750	20.250	6.2021e-02
13.750	20.500	6.4064e-02
13.750	20.750	6.5410e-02
13.750	21.000	6.5813e-02
13.750	21.250	6.4965e-02
13.750	21.500	6.2865e-02
13.750	21.750	5.8213e-02
13.750	22.000	5.1174e-02
13.750	22.250	4.4048e-02
13.750	22.500	4.1846e-02
13.750	22.750	4.9340e-02
13.750	23.000	5.9096e-02
13.750	23.250	6.4193e-02
13.750	23.500	6.8071e-02
13.750	23.750	7.1900e-02
13.750	24.000	7.4021e-02
14.000	17.000	4.6757e-04
14.000	17.250	9.0263e-04
14.000	17.500	1.9124e-03
14.000	17.750	3.5274e-03
14.000	18.000	6.3813e-03
14.000	18.250	1.2591e-02
14.000	18.500	2.1473e-02
14.000	18.750	3.1399e-02
14.000	19.000	3.9909e-02
14.000	19.250	4.3552e-02
14.000	19.500	4.7193e-02
14.000	19.750	5.1083e-02
14.000	20.000	5.4696e-02
14.000	20.250	5.7815e-02
14.000	20.500	6.0358e-02
14.000	20.750	6.2241e-02
14.000	21.000	6.3227e-02
14.000	21.250	6.2964e-02
14.000	21.500	6.1423e-02
14.000	21.750	5.7190e-02
14.000	22.000	5.0110e-02
14.000	22.250	4.1770e-02
14.000	22.500	3.6236e-02
14.000	22.750	3.8178e-02
14.000	23.000	4.9660e-02
14.000	23.250	5.9315e-02
14.000	23.500	6.4049e-02
14.000	23.750	6.7928e-02
14.000	24.000	7.1867e-02
