InwC 1458.33A  relative to Inci 1215.00A scaled to 1215A.
Hden   Phi(H)  Eq_Width (A)
 7.000	17.000	7.9066e-03
 7.000	17.250	7.9100e-03
 7.000	17.500	7.9133e-03
 7.000	17.750	7.9167e-03
 7.000	18.000	7.9201e-03
 7.000	18.250	7.9230e-03
 7.000	18.500	7.9249e-03
 7.000	18.750	7.9259e-03
 7.000	19.000	7.9268e-03
 7.000	19.250	7.9275e-03
 7.000	19.500	7.9277e-03
 7.000	19.750	7.9279e-03
 7.000	20.000	7.9280e-03
 7.000	20.250	7.9281e-03
 7.000	20.500	7.9281e-03
 7.000	20.750	7.9281e-03
 7.000	21.000	7.9281e-03
 7.000	21.250	7.9281e-03
 7.000	21.500	7.9282e-03
 7.000	21.750	7.9281e-03
 7.000	22.000	7.9281e-03
 7.000	22.250	7.9281e-03
 7.000	22.500	7.9281e-03
 7.000	22.750	7.9283e-03
 7.000	23.000	7.9283e-03
 7.000	23.250	7.9281e-03
 7.000	23.500	7.9281e-03
 7.000	23.750	7.9281e-03
 7.000	24.000	7.9281e-03
 7.250	17.000	7.8933e-03
 7.250	17.250	7.9067e-03
 7.250	17.500	7.9100e-03
 7.250	17.750	7.9133e-03
 7.250	18.000	7.9167e-03
 7.250	18.250	7.9201e-03
 7.250	18.500	7.9230e-03
 7.250	18.750	7.9249e-03
 7.250	19.000	7.9259e-03
 7.250	19.250	7.9268e-03
 7.250	19.500	7.9275e-03
 7.250	19.750	7.9277e-03
 7.250	20.000	7.9279e-03
 7.250	20.250	7.9280e-03
 7.250	20.500	7.9280e-03
 7.250	20.750	7.9281e-03
 7.250	21.000	7.9281e-03
 7.250	21.250	7.9281e-03
 7.250	21.500	7.9281e-03
 7.250	21.750	7.9296e-03
 7.250	22.000	7.9281e-03
 7.250	22.250	7.9281e-03
 7.250	22.500	7.9281e-03
 7.250	22.750	7.9288e-03
 7.250	23.000	7.9288e-03
 7.250	23.250	7.9281e-03
 7.250	23.500	7.9281e-03
 7.250	23.750	7.9281e-03
 7.250	24.000	7.9281e-03
 7.500	17.000	7.5594e-03
 7.500	17.250	7.8940e-03
 7.500	17.500	7.9067e-03
 7.500	17.750	7.9100e-03
 7.500	18.000	7.9134e-03
 7.500	18.250	7.9168e-03
 7.500	18.500	7.9201e-03
 7.500	18.750	7.9230e-03
 7.500	19.000	7.9249e-03
 7.500	19.250	7.9259e-03
 7.500	19.500	7.9268e-03
 7.500	19.750	7.9275e-03
 7.500	20.000	7.9277e-03
 7.500	20.250	7.9279e-03
 7.500	20.500	7.9279e-03
 7.500	20.750	7.9280e-03
 7.500	21.000	7.9280e-03
 7.500	21.250	7.9280e-03
 7.500	21.500	7.9281e-03
 7.500	21.750	7.9281e-03
 7.500	22.000	7.9281e-03
 7.500	22.250	7.9281e-03
 7.500	22.500	7.9281e-03
 7.500	22.750	7.9281e-03
 7.500	23.000	7.9285e-03
 7.500	23.250	7.9289e-03
 7.500	23.500	7.9281e-03
 7.500	23.750	7.9291e-03
 7.500	24.000	7.9281e-03
 7.750	17.000	7.4609e-03
 7.750	17.250	7.5611e-03
 7.750	17.500	7.8945e-03
 7.750	17.750	7.9067e-03
 7.750	18.000	7.9100e-03
 7.750	18.250	7.9134e-03
 7.750	18.500	7.9168e-03
 7.750	18.750	7.9201e-03
 7.750	19.000	7.9230e-03
 7.750	19.250	7.9249e-03
 7.750	19.500	7.9259e-03
 7.750	19.750	7.9268e-03
 7.750	20.000	7.9275e-03
 7.750	20.250	7.9277e-03
 7.750	20.500	7.9279e-03
 7.750	20.750	7.9279e-03
 7.750	21.000	7.9280e-03
 7.750	21.250	7.9280e-03
 7.750	21.500	7.9280e-03
 7.750	21.750	7.9280e-03
 7.750	22.000	7.9280e-03
 7.750	22.250	7.9281e-03
 7.750	22.500	7.9281e-03
 7.750	22.750	7.9282e-03
 7.750	23.000	7.9283e-03
 7.750	23.250	7.9281e-03
 7.750	23.500	7.9288e-03
 7.750	23.750	7.9288e-03
 7.750	24.000	7.9281e-03
 8.000	17.000	7.9097e-03
 8.000	17.250	7.4673e-03
 8.000	17.500	7.5581e-03
 8.000	17.750	7.8932e-03
 8.000	18.000	7.9067e-03
 8.000	18.250	7.9100e-03
 8.000	18.500	7.9134e-03
 8.000	18.750	7.9168e-03
 8.000	19.000	7.9201e-03
 8.000	19.250	7.9230e-03
 8.000	19.500	7.9249e-03
 8.000	19.750	7.9259e-03
 8.000	20.000	7.9268e-03
 8.000	20.250	7.9275e-03
 8.000	20.500	7.9277e-03
 8.000	20.750	7.9279e-03
 8.000	21.000	7.9279e-03
 8.000	21.250	7.9280e-03
 8.000	21.500	7.9280e-03
 8.000	21.750	7.9280e-03
 8.000	22.000	7.9280e-03
 8.000	22.250	7.9280e-03
 8.000	22.500	7.9280e-03
 8.000	22.750	7.9282e-03
 8.000	23.000	7.9280e-03
 8.000	23.250	7.9285e-03
 8.000	23.500	7.9280e-03
 8.000	23.750	7.9280e-03
 8.000	24.000	7.9281e-03
 8.250	17.000	8.3534e-03
 8.250	17.250	7.8987e-03
 8.250	17.500	7.4651e-03
 8.250	17.750	7.5593e-03
 8.250	18.000	7.8936e-03
 8.250	18.250	7.9066e-03
 8.250	18.500	7.9101e-03
 8.250	18.750	7.9134e-03
 8.250	19.000	7.9168e-03
 8.250	19.250	7.9202e-03
 8.250	19.500	7.9230e-03
 8.250	19.750	7.9249e-03
 8.250	20.000	7.9259e-03
 8.250	20.250	7.9268e-03
 8.250	20.500	7.9275e-03
 8.250	20.750	7.9277e-03
 8.250	21.000	7.9279e-03
 8.250	21.250	7.9279e-03
 8.250	21.500	7.9280e-03
 8.250	21.750	7.9280e-03
 8.250	22.000	7.9280e-03
 8.250	22.250	7.9280e-03
 8.250	22.500	7.9280e-03
 8.250	22.750	7.9281e-03
 8.250	23.000	7.9280e-03
 8.250	23.250	7.9300e-03
 8.250	23.500	7.9280e-03
 8.250	23.750	7.9280e-03
 8.250	24.000	7.9286e-03
 8.500	17.000	8.7124e-03
 8.500	17.250	8.3317e-03
 8.500	17.500	7.8833e-03
 8.500	17.750	7.4613e-03
 8.500	18.000	7.5602e-03
 8.500	18.250	7.8938e-03
 8.500	18.500	7.9066e-03
 8.500	18.750	7.9100e-03
 8.500	19.000	7.9135e-03
 8.500	19.250	7.9169e-03
 8.500	19.500	7.9202e-03
 8.500	19.750	7.9230e-03
 8.500	20.000	7.9249e-03
 8.500	20.250	7.9259e-03
 8.500	20.500	7.9268e-03
 8.500	20.750	7.9275e-03
 8.500	21.000	7.9277e-03
 8.500	21.250	7.9279e-03
 8.500	21.500	7.9279e-03
 8.500	21.750	7.9280e-03
 8.500	22.000	7.9280e-03
 8.500	22.250	7.9280e-03
 8.500	22.500	7.9280e-03
 8.500	22.750	7.9280e-03
 8.500	23.000	7.9280e-03
 8.500	23.250	7.9281e-03
 8.500	23.500	7.9280e-03
 8.500	23.750	7.9280e-03
 8.500	24.000	7.9280e-03
 8.750	17.000	8.9866e-03
 8.750	17.250	8.6899e-03
 8.750	17.500	8.3046e-03
 8.750	17.750	7.8710e-03
 8.750	18.000	7.4546e-03
 8.750	18.250	7.5607e-03
 8.750	18.500	7.8938e-03
 8.750	18.750	7.9065e-03
 8.750	19.000	7.9100e-03
 8.750	19.250	7.9135e-03
 8.750	19.500	7.9169e-03
 8.750	19.750	7.9202e-03
 8.750	20.000	7.9230e-03
 8.750	20.250	7.9249e-03
 8.750	20.500	7.9259e-03
 8.750	20.750	7.9268e-03
 8.750	21.000	7.9275e-03
 8.750	21.250	7.9277e-03
 8.750	21.500	7.9279e-03
 8.750	21.750	7.9279e-03
 8.750	22.000	7.9280e-03
 8.750	22.250	7.9280e-03
 8.750	22.500	7.9280e-03
 8.750	22.750	7.9280e-03
 8.750	23.000	7.9287e-03
 8.750	23.250	7.9280e-03
 8.750	23.500	7.9281e-03
 8.750	23.750	7.9280e-03
 8.750	24.000	7.9280e-03
 9.000	17.000	9.1840e-03
 9.000	17.250	8.9589e-03
 9.000	17.500	8.6521e-03
 9.000	17.750	8.2602e-03
 9.000	18.000	7.8272e-03
 9.000	18.250	7.4360e-03
 9.000	18.500	7.5606e-03
 9.000	18.750	7.8935e-03
 9.000	19.000	7.9064e-03
 9.000	19.250	7.9100e-03
 9.000	19.500	7.9136e-03
 9.000	19.750	7.9170e-03
 9.000	20.000	7.9202e-03
 9.000	20.250	7.9230e-03
 9.000	20.500	7.9249e-03
 9.000	20.750	7.9259e-03
 9.000	21.000	7.9268e-03
 9.000	21.250	7.9275e-03
 9.000	21.500	7.9277e-03
 9.000	21.750	7.9278e-03
 9.000	22.000	7.9279e-03
 9.000	22.250	7.9279e-03
 9.000	22.500	7.9279e-03
 9.000	22.750	7.9280e-03
 9.000	23.000	7.9280e-03
 9.000	23.250	7.9280e-03
 9.000	23.500	7.9280e-03
 9.000	23.750	7.9280e-03
 9.000	24.000	7.9281e-03
 9.250	17.000	9.3235e-03
 9.250	17.250	9.1542e-03
 9.250	17.500	8.9127e-03
 9.250	17.750	8.5860e-03
 9.250	18.000	8.1810e-03
 9.250	18.250	7.7550e-03
 9.250	18.500	7.3985e-03
 9.250	18.750	7.5594e-03
 9.250	19.000	7.8925e-03
 9.250	19.250	7.9062e-03
 9.250	19.500	7.9100e-03
 9.250	19.750	7.9136e-03
 9.250	20.000	7.9170e-03
 9.250	20.250	7.9202e-03
 9.250	20.500	7.9230e-03
 9.250	20.750	7.9249e-03
 9.250	21.000	7.9259e-03
 9.250	21.250	7.9268e-03
 9.250	21.500	7.9271e-03
 9.250	21.750	7.9272e-03
 9.250	22.000	7.9272e-03
 9.250	22.250	7.9274e-03
 9.250	22.500	7.9276e-03
 9.250	22.750	7.9276e-03
 9.250	23.000	7.9277e-03
 9.250	23.250	7.9278e-03
 9.250	23.500	7.9278e-03
 9.250	23.750	7.9278e-03
 9.250	24.000	7.9279e-03
 9.500	17.000	9.4216e-03
 9.500	17.250	9.2911e-03
 9.500	17.500	9.1026e-03
 9.500	17.750	8.8361e-03
 9.500	18.000	8.4792e-03
 9.500	18.250	8.0522e-03
 9.500	18.500	7.6352e-03
 9.500	18.750	7.3426e-03
 9.500	19.000	7.5570e-03
 9.500	19.250	7.8907e-03
 9.500	19.500	7.9059e-03
 9.500	19.750	7.9100e-03
 9.500	20.000	7.9136e-03
 9.500	20.250	7.9170e-03
 9.500	20.500	7.9202e-03
 9.500	20.750	7.9226e-03
 9.500	21.000	7.9244e-03
 9.500	21.250	7.9254e-03
 9.500	21.500	7.9263e-03
 9.500	21.750	7.9267e-03
 9.500	22.000	7.9270e-03
 9.500	22.250	7.9271e-03
 9.500	22.500	7.9272e-03
 9.500	22.750	7.9272e-03
 9.500	23.000	7.9272e-03
 9.500	23.250	7.9272e-03
 9.500	23.500	7.9272e-03
 9.500	23.750	7.9272e-03
 9.500	24.000	7.9272e-03
 9.750	17.000	9.4881e-03
 9.750	17.250	9.3880e-03
 9.750	17.500	9.2396e-03
 9.750	17.750	9.0214e-03
 9.750	18.000	8.7092e-03
 9.750	18.250	8.3122e-03
 9.750	18.500	7.8635e-03
 9.750	18.750	7.4541e-03
 9.750	19.000	7.3402e-03
 9.750	19.250	7.5527e-03
 9.750	19.500	7.8872e-03
 9.750	19.750	7.9053e-03
 9.750	20.000	7.9098e-03
 9.750	20.250	7.9136e-03
 9.750	20.500	7.9170e-03
 9.750	20.750	7.9202e-03
 9.750	21.000	7.9226e-03
 9.750	21.250	7.9244e-03
 9.750	21.500	7.9254e-03
 9.750	21.750	7.9263e-03
 9.750	22.000	7.9267e-03
 9.750	22.250	7.9270e-03
 9.750	22.500	7.9271e-03
 9.750	22.750	7.9272e-03
 9.750	23.000	7.9272e-03
 9.750	23.250	7.9272e-03
 9.750	23.500	7.9272e-03
 9.750	23.750	7.9272e-03
 9.750	24.000	7.9272e-03
10.000	17.000	9.5350e-03
10.000	17.250	9.4547e-03
10.000	17.500	9.3354e-03
10.000	17.750	9.1542e-03
10.000	18.000	8.8849e-03
10.000	18.250	8.5245e-03
10.000	18.500	8.0958e-03
10.000	18.750	7.6693e-03
10.000	19.000	7.3394e-03
10.000	19.250	7.3381e-03
10.000	19.500	7.5463e-03
10.000	19.750	7.8815e-03
10.000	20.000	7.9044e-03
10.000	20.250	7.9095e-03
10.000	20.500	7.9136e-03
10.000	20.750	7.9170e-03
10.000	21.000	7.9202e-03
10.000	21.250	7.9229e-03
10.000	21.500	7.9245e-03
10.000	21.750	7.9254e-03
10.000	22.000	7.9264e-03
10.000	22.250	7.9269e-03
10.000	22.500	7.9270e-03
10.000	22.750	7.9271e-03
10.000	23.000	7.9272e-03
10.000	23.250	7.9272e-03
10.000	23.500	7.9272e-03
10.000	23.750	7.9272e-03
10.000	24.000	7.9272e-03
10.250	17.000	9.5676e-03
10.250	17.250	9.5020e-03
10.250	17.500	9.4018e-03
10.250	17.750	9.2476e-03
10.250	18.000	9.0138e-03
10.250	18.250	8.6996e-03
10.250	18.500	8.3095e-03
10.250	18.750	7.8807e-03
10.250	19.000	7.4791e-03
10.250	19.250	7.2087e-03
10.250	19.500	7.3372e-03
10.250	19.750	7.5398e-03
10.250	20.000	7.8731e-03
10.250	20.250	7.9032e-03
10.250	20.500	7.9091e-03
10.250	20.750	7.9135e-03
10.250	21.000	7.9170e-03
10.250	21.250	7.9203e-03
10.250	21.500	7.9230e-03
10.250	21.750	7.9246e-03
10.250	22.000	7.9254e-03
10.250	22.250	7.9264e-03
10.250	22.500	7.9270e-03
10.250	22.750	7.9270e-03
10.250	23.000	7.9272e-03
10.250	23.250	7.9272e-03
10.250	23.500	7.9272e-03
10.250	23.750	7.9272e-03
10.250	24.000	7.9272e-03
10.500	17.000	9.5903e-03
10.500	17.250	9.5342e-03
10.500	17.500	9.4474e-03
10.500	17.750	9.3112e-03
10.500	18.000	9.1049e-03
10.500	18.250	8.8238e-03
10.500	18.500	8.4916e-03
10.500	18.750	8.1138e-03
10.500	19.000	7.7232e-03
10.500	19.250	7.3409e-03
10.500	19.500	7.2148e-03
10.500	19.750	7.3377e-03
10.500	20.000	7.5342e-03
10.500	20.250	7.8631e-03
10.500	20.500	7.9016e-03
10.500	20.750	7.9086e-03
10.500	21.000	7.9133e-03
10.500	21.250	7.9170e-03
10.500	21.500	7.9203e-03
10.500	21.750	7.9230e-03
10.500	22.000	7.9248e-03
10.500	22.250	7.9255e-03
10.500	22.500	7.9264e-03
10.500	22.750	7.9270e-03
10.500	23.000	7.9271e-03
10.500	23.250	7.9271e-03
10.500	23.500	7.9272e-03
10.500	23.750	7.9272e-03
10.500	24.000	7.9272e-03
10.750	17.000	9.6049e-03
10.750	17.250	9.5551e-03
10.750	17.500	9.4764e-03
10.750	17.750	9.3488e-03
10.750	18.000	9.1633e-03
10.750	18.250	8.9279e-03
10.750	18.500	8.6573e-03
10.750	18.750	8.3547e-03
10.750	19.000	7.9978e-03
10.750	19.250	7.5984e-03
10.750	19.500	7.2292e-03
10.750	19.750	7.2179e-03
10.750	20.000	7.3392e-03
10.750	20.250	7.5309e-03
10.750	20.500	7.8550e-03
10.750	20.750	7.8999e-03
10.750	21.000	7.9077e-03
10.750	21.250	7.9131e-03
10.750	21.500	7.9170e-03
10.750	21.750	7.9203e-03
10.750	22.000	7.9230e-03
10.750	22.250	7.9249e-03
10.750	22.500	7.9258e-03
10.750	22.750	7.9265e-03
10.750	23.000	7.9271e-03
10.750	23.250	7.9272e-03
10.750	23.500	7.9272e-03
10.750	23.750	7.9272e-03
10.750	24.000	7.9272e-03
11.000	17.000	9.6116e-03
11.000	17.250	9.5660e-03
11.000	17.500	9.4875e-03
11.000	17.750	9.3641e-03
11.000	18.000	9.1972e-03
11.000	18.250	9.0023e-03
11.000	18.500	8.7959e-03
11.000	18.750	8.5565e-03
11.000	19.000	8.2594e-03
11.000	19.250	7.8924e-03
11.000	19.500	7.4817e-03
11.000	19.750	7.0663e-03
11.000	20.000	7.2198e-03
11.000	20.250	7.3402e-03
11.000	20.500	7.5314e-03
11.000	20.750	7.8525e-03
11.000	21.000	7.8979e-03
11.000	21.250	7.9067e-03
11.000	21.500	7.9128e-03
11.000	21.750	7.9170e-03
11.000	22.000	7.9202e-03
11.000	22.250	7.9230e-03
11.000	22.500	7.9249e-03
11.000	22.750	7.9258e-03
11.000	23.000	7.9266e-03
11.000	23.250	7.9271e-03
11.000	23.500	7.9272e-03
11.000	23.750	7.9272e-03
11.000	24.000	7.9272e-03
11.250	17.000	9.6100e-03
11.250	17.250	9.5653e-03
11.250	17.500	9.4815e-03
11.250	17.750	9.3568e-03
11.250	18.000	9.2022e-03
11.250	18.250	9.0465e-03
11.250	18.500	8.8907e-03
11.250	18.750	8.7073e-03
11.250	19.000	8.4747e-03
11.250	19.250	8.1751e-03
11.250	19.500	7.7968e-03
11.250	19.750	7.3557e-03
11.250	20.000	7.0459e-03
11.250	20.250	7.2210e-03
11.250	20.500	7.3458e-03
11.250	20.750	7.5382e-03
11.250	21.000	7.8603e-03
11.250	21.250	7.8965e-03
11.250	21.500	7.9058e-03
11.250	21.750	7.9123e-03
11.250	22.000	7.9168e-03
11.250	22.250	7.9202e-03
11.250	22.500	7.9229e-03
11.250	22.750	7.9249e-03
11.250	23.000	7.9258e-03
11.250	23.250	7.9267e-03
11.250	23.500	7.9271e-03
11.250	23.750	7.9273e-03
11.250	24.000	7.9273e-03
11.500	17.000	9.5998e-03
11.500	17.250	9.5483e-03
11.500	17.500	9.4558e-03
11.500	17.750	9.3224e-03
11.500	18.000	9.1768e-03
11.500	18.250	9.0541e-03
11.500	18.500	8.9419e-03
11.500	18.750	8.8114e-03
11.500	19.000	8.6397e-03
11.500	19.250	8.4068e-03
11.500	19.500	8.0940e-03
11.500	19.750	7.6940e-03
11.500	20.000	7.2322e-03
11.500	20.250	7.0553e-03
11.500	20.500	7.2234e-03
11.500	20.750	7.3509e-03
11.500	21.000	7.5572e-03
11.500	21.250	7.8737e-03
11.500	21.500	7.8947e-03
11.500	21.750	7.9048e-03
11.500	22.000	7.9119e-03
11.500	22.250	7.9165e-03
11.500	22.500	7.9201e-03
11.500	22.750	7.9229e-03
11.500	23.000	7.9249e-03
11.500	23.250	7.9258e-03
11.500	23.500	7.9268e-03
11.500	23.750	7.9272e-03
11.500	24.000	7.9273e-03
11.750	17.000	9.5744e-03
11.750	17.250	9.5118e-03
11.750	17.500	9.4022e-03
11.750	17.750	9.2525e-03
11.750	18.000	9.1202e-03
11.750	18.250	9.0263e-03
11.750	18.500	8.9522e-03
11.750	18.750	8.8678e-03
11.750	19.000	8.7490e-03
11.750	19.250	8.5802e-03
11.750	19.500	8.3416e-03
11.750	19.750	8.0162e-03
11.750	20.000	7.5953e-03
11.750	20.250	7.1172e-03
11.750	20.500	7.0923e-03
11.750	20.750	7.2290e-03
11.750	21.000	7.3664e-03
11.750	21.250	7.6049e-03
11.750	21.500	7.8756e-03
11.750	21.750	7.8928e-03
11.750	22.000	7.9035e-03
11.750	22.250	7.9113e-03
11.750	22.500	7.9163e-03
11.750	22.750	7.9199e-03
11.750	23.000	7.9228e-03
11.750	23.250	7.9249e-03
11.750	23.500	7.9258e-03
11.750	23.750	7.9268e-03
11.750	24.000	7.9274e-03
12.000	17.000	9.5240e-03
12.000	17.250	9.4402e-03
12.000	17.500	9.3010e-03
12.000	17.750	9.1401e-03
12.000	18.000	9.0293e-03
12.000	18.250	8.9681e-03
12.000	18.500	8.9244e-03
12.000	18.750	8.8757e-03
12.000	19.000	8.8040e-03
12.000	19.250	8.6940e-03
12.000	19.500	8.5263e-03
12.000	19.750	8.2815e-03
12.000	20.000	7.9439e-03
12.000	20.250	7.5071e-03
12.000	20.500	7.0204e-03
12.000	20.750	7.0860e-03
12.000	21.000	7.2397e-03
12.000	21.250	7.4105e-03
12.000	21.500	7.6916e-03
12.000	21.750	7.8737e-03
12.000	22.000	7.8914e-03
12.000	22.250	7.9028e-03
12.000	22.500	7.9107e-03
12.000	22.750	7.9160e-03
12.000	23.000	7.9198e-03
12.000	23.250	7.9227e-03
12.000	23.500	7.9249e-03
12.000	23.750	7.9258e-03
12.000	24.000	7.9268e-03
12.250	17.000	9.3959e-03
12.250	17.250	9.2843e-03
12.250	17.500	9.1216e-03
12.250	17.750	8.9803e-03
12.250	18.000	8.9100e-03
12.250	18.250	8.8768e-03
12.250	18.500	8.8598e-03
12.250	18.750	8.8402e-03
12.250	19.000	8.8084e-03
12.250	19.250	8.7489e-03
12.250	19.500	8.6458e-03
12.250	19.750	8.4771e-03
12.250	20.000	8.2283e-03
12.250	20.250	7.8781e-03
12.250	20.500	7.4257e-03
12.250	20.750	6.9253e-03
12.250	21.000	7.0860e-03
12.250	21.250	7.2659e-03
12.250	21.500	7.4757e-03
12.250	21.750	7.7954e-03
12.250	22.000	7.8708e-03
12.250	22.250	7.8877e-03
12.250	22.500	7.9008e-03
12.250	22.750	7.9099e-03
12.250	23.000	7.9156e-03
12.250	23.250	7.9195e-03
12.250	23.500	7.9226e-03
12.250	23.750	7.9248e-03
12.250	24.000	7.9258e-03
12.500	17.000	9.0872e-03
12.500	17.250	8.9653e-03
12.500	17.500	8.8402e-03
12.500	17.750	8.7804e-03
12.500	18.000	8.7559e-03
12.500	18.250	8.7500e-03
12.500	18.500	8.7546e-03
12.500	18.750	8.7638e-03
12.500	19.000	8.7672e-03
12.500	19.250	8.7510e-03
12.500	19.500	8.7026e-03
12.500	19.750	8.6031e-03
12.500	20.000	8.4348e-03
12.500	20.250	8.1802e-03
12.500	20.500	7.8180e-03
12.500	20.750	7.3578e-03
12.500	21.000	6.8820e-03
12.500	21.250	7.1042e-03
12.500	21.500	7.3085e-03
12.500	21.750	7.5558e-03
12.500	22.000	7.8426e-03
12.500	22.250	7.8677e-03
12.500	22.500	7.8848e-03
12.500	22.750	7.8989e-03
12.500	23.000	7.9089e-03
12.500	23.250	7.9152e-03
12.500	23.500	7.9193e-03
12.500	23.750	7.9224e-03
12.500	24.000	7.9248e-03
12.750	17.000	6.5949e-03
12.750	17.250	8.4114e-03
12.750	17.500	8.5433e-03
12.750	17.750	8.5558e-03
12.750	18.000	8.5621e-03
12.750	18.250	8.5778e-03
12.750	18.500	8.6067e-03
12.750	18.750	8.6427e-03
12.750	19.000	8.6786e-03
12.750	19.250	8.7029e-03
12.750	19.500	8.7021e-03
12.750	19.750	8.6606e-03
12.750	20.000	8.5639e-03
12.750	20.250	8.3943e-03
12.750	20.500	8.1326e-03
12.750	20.750	7.7628e-03
12.750	21.000	7.2863e-03
12.750	21.250	6.8289e-03
12.750	21.500	7.1286e-03
12.750	21.750	7.3696e-03
12.750	22.000	7.6415e-03
12.750	22.250	7.8424e-03
12.750	22.500	7.8649e-03
12.750	22.750	7.8828e-03
12.750	23.000	7.8973e-03
12.750	23.250	7.9077e-03
12.750	23.500	7.9145e-03
12.750	23.750	7.9188e-03
12.750	24.000	7.9222e-03
13.000	17.000	3.2970e-03
13.000	17.250	5.9359e-03
13.000	17.500	7.7598e-03
13.000	17.750	8.2986e-03
13.000	18.000	8.3235e-03
13.000	18.250	8.3579e-03
13.000	18.500	8.4101e-03
13.000	18.750	8.4742e-03
13.000	19.000	8.5424e-03
13.000	19.250	8.6038e-03
13.000	19.500	8.6457e-03
13.000	19.750	8.6556e-03
13.000	20.000	8.6202e-03
13.000	20.250	8.5252e-03
13.000	20.500	8.3510e-03
13.000	20.750	8.0821e-03
13.000	21.000	7.6974e-03
13.000	21.250	7.2175e-03
13.000	21.500	6.8185e-03
13.000	21.750	7.1729e-03
13.000	22.000	7.4226e-03
13.000	22.250	7.7058e-03
13.000	22.500	7.8409e-03
13.000	22.750	7.8630e-03
13.000	23.000	7.8812e-03
13.000	23.250	7.8956e-03
13.000	23.500	7.9065e-03
13.000	23.750	7.9136e-03
13.000	24.000	7.9182e-03
13.250	17.000	2.0280e-03
13.250	17.250	3.7381e-03
13.250	17.500	6.9047e-03
13.250	17.750	7.9982e-03
13.250	18.000	8.0374e-03
13.250	18.250	8.0850e-03
13.250	18.500	8.1591e-03
13.250	18.750	8.2544e-03
13.250	19.000	8.3560e-03
13.250	19.250	8.4539e-03
13.250	19.500	8.5356e-03
13.250	19.750	8.5906e-03
13.250	20.000	8.6078e-03
13.250	20.250	8.5747e-03
13.250	20.500	8.4777e-03
13.250	20.750	8.2956e-03
13.250	21.000	8.0143e-03
13.250	21.250	7.6238e-03
13.250	21.500	7.1657e-03
13.250	21.750	6.8616e-03
13.250	22.000	7.1931e-03
13.250	22.250	7.4607e-03
13.250	22.500	7.7255e-03
13.250	22.750	7.8393e-03
13.250	23.000	7.8610e-03
13.250	23.250	7.8788e-03
13.250	23.500	7.8941e-03
13.250	23.750	7.9053e-03
13.250	24.000	7.9124e-03
13.500	17.000	1.2393e-03
13.500	17.250	2.3499e-03
13.500	17.500	4.6400e-03
13.500	17.750	6.9103e-03
13.500	18.000	7.7026e-03
13.500	18.250	7.7628e-03
13.500	18.500	7.8542e-03
13.500	18.750	7.9790e-03
13.500	19.000	8.1163e-03
13.500	19.250	8.2520e-03
13.500	19.500	8.3721e-03
13.500	19.750	8.4681e-03
13.500	20.000	8.5312e-03
13.500	20.250	8.5523e-03
13.500	20.500	8.5178e-03
13.500	20.750	8.4145e-03
13.500	21.000	8.2230e-03
13.500	21.250	7.9263e-03
13.500	21.500	7.5416e-03
13.500	21.750	7.0884e-03
13.500	22.000	6.8841e-03
13.500	22.250	7.1924e-03
13.500	22.500	7.4506e-03
13.500	22.750	7.7133e-03
13.500	23.000	7.8365e-03
13.500	23.250	7.8582e-03
13.500	23.500	7.8772e-03
13.500	23.750	7.8927e-03
13.500	24.000	7.9038e-03
13.750	17.000	7.6502e-04
13.750	17.250	1.4532e-03
13.750	17.500	3.0356e-03
13.750	17.750	5.0431e-03
13.750	18.000	7.1835e-03
13.750	18.250	7.3634e-03
13.750	18.500	7.4885e-03
13.750	18.750	7.6477e-03
13.750	19.000	7.8190e-03
13.750	19.250	7.9947e-03
13.750	19.500	8.1563e-03
13.750	19.750	8.2929e-03
13.750	20.000	8.3979e-03
13.750	20.250	8.4641e-03
13.750	20.500	8.4834e-03
13.750	20.750	8.4418e-03
13.750	21.000	8.3243e-03
13.750	21.250	8.1120e-03
13.750	21.500	7.8096e-03
13.750	21.750	7.3939e-03
13.750	22.000	6.9676e-03
13.750	22.250	6.9041e-03
13.750	22.500	7.1695e-03
13.750	22.750	7.4374e-03
13.750	23.000	7.7057e-03
13.750	23.250	7.8320e-03
13.750	23.500	7.8547e-03
13.750	23.750	7.8748e-03
13.750	24.000	7.8905e-03
14.000	17.000	4.6519e-04
14.000	17.250	9.0494e-04
14.000	17.500	1.8998e-03
14.000	17.750	3.4926e-03
14.000	18.000	5.4903e-03
14.000	18.250	6.8968e-03
14.000	18.500	7.0368e-03
14.000	18.750	7.2324e-03
14.000	19.000	7.4561e-03
14.000	19.250	7.6793e-03
14.000	19.500	7.8851e-03
14.000	19.750	8.0651e-03
14.000	20.000	8.2116e-03
14.000	20.250	8.3207e-03
14.000	20.500	8.3840e-03
14.000	20.750	8.3935e-03
14.000	21.000	8.3356e-03
14.000	21.250	8.1903e-03
14.000	21.500	7.9582e-03
14.000	21.750	7.5974e-03
14.000	22.000	7.1478e-03
14.000	22.250	6.7914e-03
14.000	22.500	6.9133e-03
14.000	22.750	7.1504e-03
14.000	23.000	7.4188e-03
14.000	23.250	7.7118e-03
14.000	23.500	7.8247e-03
14.000	23.750	7.8486e-03
14.000	24.000	7.8708e-03
