InwC 925.144A  relative to Inci 1215.00A scaled to 1215A.
Hden   Phi(H)  Eq_Width (A)
 7.000	17.000	7.9388e-03
 7.000	17.250	7.9422e-03
 7.000	17.500	7.9455e-03
 7.000	17.750	7.9490e-03
 7.000	18.000	7.9523e-03
 7.000	18.250	7.9551e-03
 7.000	18.500	7.9571e-03
 7.000	18.750	7.9581e-03
 7.000	19.000	7.9591e-03
 7.000	19.250	7.9598e-03
 7.000	19.500	7.9600e-03
 7.000	19.750	7.9602e-03
 7.000	20.000	7.9602e-03
 7.000	20.250	7.9602e-03
 7.000	20.500	7.9603e-03
 7.000	20.750	7.9603e-03
 7.000	21.000	7.9603e-03
 7.000	21.250	7.9603e-03
 7.000	21.500	7.9605e-03
 7.000	21.750	7.9603e-03
 7.000	22.000	7.9603e-03
 7.000	22.250	7.9603e-03
 7.000	22.500	7.9603e-03
 7.000	22.750	7.9606e-03
 7.000	23.000	7.9606e-03
 7.000	23.250	7.9603e-03
 7.000	23.500	7.9603e-03
 7.000	23.750	7.9603e-03
 7.000	24.000	7.9603e-03
 7.250	17.000	7.9256e-03
 7.250	17.250	7.9388e-03
 7.250	17.500	7.9422e-03
 7.250	17.750	7.9456e-03
 7.250	18.000	7.9490e-03
 7.250	18.250	7.9523e-03
 7.250	18.500	7.9551e-03
 7.250	18.750	7.9571e-03
 7.250	19.000	7.9581e-03
 7.250	19.250	7.9591e-03
 7.250	19.500	7.9598e-03
 7.250	19.750	7.9600e-03
 7.250	20.000	7.9602e-03
 7.250	20.250	7.9602e-03
 7.250	20.500	7.9602e-03
 7.250	20.750	7.9602e-03
 7.250	21.000	7.9603e-03
 7.250	21.250	7.9603e-03
 7.250	21.500	7.9603e-03
 7.250	21.750	7.9619e-03
 7.250	22.000	7.9603e-03
 7.250	22.250	7.9603e-03
 7.250	22.500	7.9603e-03
 7.250	22.750	7.9611e-03
 7.250	23.000	7.9611e-03
 7.250	23.250	7.9603e-03
 7.250	23.500	7.9603e-03
 7.250	23.750	7.9603e-03
 7.250	24.000	7.9603e-03
 7.500	17.000	7.6030e-03
 7.500	17.250	7.9263e-03
 7.500	17.500	7.9388e-03
 7.500	17.750	7.9422e-03
 7.500	18.000	7.9456e-03
 7.500	18.250	7.9490e-03
 7.500	18.500	7.9523e-03
 7.500	18.750	7.9551e-03
 7.500	19.000	7.9571e-03
 7.500	19.250	7.9581e-03
 7.500	19.500	7.9591e-03
 7.500	19.750	7.9598e-03
 7.500	20.000	7.9600e-03
 7.500	20.250	7.9602e-03
 7.500	20.500	7.9602e-03
 7.500	20.750	7.9602e-03
 7.500	21.000	7.9602e-03
 7.500	21.250	7.9602e-03
 7.500	21.500	7.9603e-03
 7.500	21.750	7.9603e-03
 7.500	22.000	7.9603e-03
 7.500	22.250	7.9603e-03
 7.500	22.500	7.9603e-03
 7.500	22.750	7.9603e-03
 7.500	23.000	7.9607e-03
 7.500	23.250	7.9611e-03
 7.500	23.500	7.9603e-03
 7.500	23.750	7.9613e-03
 7.500	24.000	7.9603e-03
 7.750	17.000	7.4622e-03
 7.750	17.250	7.6046e-03
 7.750	17.500	7.9267e-03
 7.750	17.750	7.9388e-03
 7.750	18.000	7.9422e-03
 7.750	18.250	7.9456e-03
 7.750	18.500	7.9490e-03
 7.750	18.750	7.9523e-03
 7.750	19.000	7.9551e-03
 7.750	19.250	7.9571e-03
 7.750	19.500	7.9581e-03
 7.750	19.750	7.9591e-03
 7.750	20.000	7.9598e-03
 7.750	20.250	7.9600e-03
 7.750	20.500	7.9602e-03
 7.750	20.750	7.9602e-03
 7.750	21.000	7.9602e-03
 7.750	21.250	7.9602e-03
 7.750	21.500	7.9602e-03
 7.750	21.750	7.9602e-03
 7.750	22.000	7.9602e-03
 7.750	22.250	7.9602e-03
 7.750	22.500	7.9603e-03
 7.750	22.750	7.9605e-03
 7.750	23.000	7.9606e-03
 7.750	23.250	7.9603e-03
 7.750	23.500	7.9611e-03
 7.750	23.750	7.9612e-03
 7.750	24.000	7.9603e-03
 8.000	17.000	6.4101e-03
 8.000	17.250	7.4532e-03
 8.000	17.500	7.6018e-03
 8.000	17.750	7.9255e-03
 8.000	18.000	7.9388e-03
 8.000	18.250	7.9423e-03
 8.000	18.500	7.9456e-03
 8.000	18.750	7.9491e-03
 8.000	19.000	7.9523e-03
 8.000	19.250	7.9551e-03
 8.000	19.500	7.9571e-03
 8.000	19.750	7.9581e-03
 8.000	20.000	7.9591e-03
 8.000	20.250	7.9598e-03
 8.000	20.500	7.9600e-03
 8.000	20.750	7.9602e-03
 8.000	21.000	7.9602e-03
 8.000	21.250	7.9602e-03
 8.000	21.500	7.9602e-03
 8.000	21.750	7.9602e-03
 8.000	22.000	7.9602e-03
 8.000	22.250	7.9602e-03
 8.000	22.500	7.9602e-03
 8.000	22.750	7.9605e-03
 8.000	23.000	7.9602e-03
 8.000	23.250	7.9607e-03
 8.000	23.500	7.9602e-03
 8.000	23.750	7.9602e-03
 8.000	24.000	7.9602e-03
 8.250	17.000	5.2134e-03
 8.250	17.250	6.3943e-03
 8.250	17.500	7.4523e-03
 8.250	17.750	7.6030e-03
 8.250	18.000	7.9259e-03
 8.250	18.250	7.9388e-03
 8.250	18.500	7.9423e-03
 8.250	18.750	7.9457e-03
 8.250	19.000	7.9491e-03
 8.250	19.250	7.9523e-03
 8.250	19.500	7.9552e-03
 8.250	19.750	7.9571e-03
 8.250	20.000	7.9581e-03
 8.250	20.250	7.9591e-03
 8.250	20.500	7.9598e-03
 8.250	20.750	7.9600e-03
 8.250	21.000	7.9602e-03
 8.250	21.250	7.9602e-03
 8.250	21.500	7.9602e-03
 8.250	21.750	7.9602e-03
 8.250	22.000	7.9602e-03
 8.250	22.250	7.9602e-03
 8.250	22.500	7.9602e-03
 8.250	22.750	7.9604e-03
 8.250	23.000	7.9602e-03
 8.250	23.250	7.9623e-03
 8.250	23.500	7.9602e-03
 8.250	23.750	7.9602e-03
 8.250	24.000	7.9608e-03
 8.500	17.000	4.3872e-03
 8.500	17.250	5.1845e-03
 8.500	17.500	6.3815e-03
 8.500	17.750	7.4511e-03
 8.500	18.000	7.6040e-03
 8.500	18.250	7.9263e-03
 8.500	18.500	7.9388e-03
 8.500	18.750	7.9423e-03
 8.500	19.000	7.9457e-03
 8.500	19.250	7.9491e-03
 8.500	19.500	7.9523e-03
 8.500	19.750	7.9552e-03
 8.500	20.000	7.9571e-03
 8.500	20.250	7.9581e-03
 8.500	20.500	7.9591e-03
 8.500	20.750	7.9598e-03
 8.500	21.000	7.9600e-03
 8.500	21.250	7.9602e-03
 8.500	21.500	7.9602e-03
 8.500	21.750	7.9602e-03
 8.500	22.000	7.9602e-03
 8.500	22.250	7.9602e-03
 8.500	22.500	7.9602e-03
 8.500	22.750	7.9602e-03
 8.500	23.000	7.9602e-03
 8.500	23.250	7.9604e-03
 8.500	23.500	7.9602e-03
 8.500	23.750	7.9602e-03
 8.500	24.000	7.9602e-03
 8.750	17.000	3.8862e-03
 8.750	17.250	4.3572e-03
 8.750	17.500	5.1652e-03
 8.750	17.750	6.3846e-03
 8.750	18.000	7.4506e-03
 8.750	18.250	7.6045e-03
 8.750	18.500	7.9263e-03
 8.750	18.750	7.9388e-03
 8.750	19.000	7.9423e-03
 8.750	19.250	7.9458e-03
 8.750	19.500	7.9491e-03
 8.750	19.750	7.9524e-03
 8.750	20.000	7.9552e-03
 8.750	20.250	7.9571e-03
 8.750	20.500	7.9581e-03
 8.750	20.750	7.9591e-03
 8.750	21.000	7.9598e-03
 8.750	21.250	7.9600e-03
 8.750	21.500	7.9602e-03
 8.750	21.750	7.9602e-03
 8.750	22.000	7.9602e-03
 8.750	22.250	7.9602e-03
 8.750	22.500	7.9602e-03
 8.750	22.750	7.9602e-03
 8.750	23.000	7.9610e-03
 8.750	23.250	7.9602e-03
 8.750	23.500	7.9604e-03
 8.750	23.750	7.9602e-03
 8.750	24.000	7.9602e-03
 9.000	17.000	3.5837e-03
 9.000	17.250	3.8548e-03
 9.000	17.500	4.3359e-03
 9.000	17.750	5.1586e-03
 9.000	18.000	6.4003e-03
 9.000	18.250	7.4509e-03
 9.000	18.500	7.6046e-03
 9.000	18.750	7.9262e-03
 9.000	19.000	7.9388e-03
 9.000	19.250	7.9423e-03
 9.000	19.500	7.9458e-03
 9.000	19.750	7.9491e-03
 9.000	20.000	7.9524e-03
 9.000	20.250	7.9552e-03
 9.000	20.500	7.9571e-03
 9.000	20.750	7.9581e-03
 9.000	21.000	7.9591e-03
 9.000	21.250	7.9598e-03
 9.000	21.500	7.9600e-03
 9.000	21.750	7.9601e-03
 9.000	22.000	7.9602e-03
 9.000	22.250	7.9602e-03
 9.000	22.500	7.9602e-03
 9.000	22.750	7.9602e-03
 9.000	23.000	7.9602e-03
 9.000	23.250	7.9602e-03
 9.000	23.500	7.9602e-03
 9.000	23.750	7.9602e-03
 9.000	24.000	7.9603e-03
 9.250	17.000	3.3871e-03
 9.250	17.250	3.5518e-03
 9.250	17.500	3.8361e-03
 9.250	17.750	4.3478e-03
 9.250	18.000	5.2198e-03
 9.250	18.250	6.4858e-03
 9.250	18.500	7.4487e-03
 9.250	18.750	7.6040e-03
 9.250	19.000	7.9256e-03
 9.250	19.250	7.9387e-03
 9.250	19.500	7.9423e-03
 9.250	19.750	7.9458e-03
 9.250	20.000	7.9492e-03
 9.250	20.250	7.9524e-03
 9.250	20.500	7.9552e-03
 9.250	20.750	7.9571e-03
 9.250	21.000	7.9581e-03
 9.250	21.250	7.9591e-03
 9.250	21.500	7.9593e-03
 9.250	21.750	7.9595e-03
 9.250	22.000	7.9594e-03
 9.250	22.250	7.9597e-03
 9.250	22.500	7.9598e-03
 9.250	22.750	7.9598e-03
 9.250	23.000	7.9600e-03
 9.250	23.250	7.9601e-03
 9.250	23.500	7.9601e-03
 9.250	23.750	7.9601e-03
 9.250	24.000	7.9601e-03
 9.500	17.000	3.2460e-03
 9.500	17.250	3.3565e-03
 9.500	17.500	3.5439e-03
 9.500	17.750	3.8728e-03
 9.500	18.000	4.4323e-03
 9.500	18.250	5.3807e-03
 9.500	18.500	6.7271e-03
 9.500	18.750	7.4133e-03
 9.500	19.000	7.6025e-03
 9.500	19.250	7.9243e-03
 9.500	19.500	7.9386e-03
 9.500	19.750	7.9423e-03
 9.500	20.000	7.9458e-03
 9.500	20.250	7.9492e-03
 9.500	20.500	7.9525e-03
 9.500	20.750	7.9548e-03
 9.500	21.000	7.9567e-03
 9.500	21.250	7.9576e-03
 9.500	21.500	7.9585e-03
 9.500	21.750	7.9590e-03
 9.500	22.000	7.9593e-03
 9.500	22.250	7.9593e-03
 9.500	22.500	7.9593e-03
 9.500	22.750	7.9594e-03
 9.500	23.000	7.9594e-03
 9.500	23.250	7.9594e-03
 9.500	23.500	7.9594e-03
 9.500	23.750	7.9595e-03
 9.500	24.000	7.9595e-03
 9.750	17.000	3.1510e-03
 9.750	17.250	3.2144e-03
 9.750	17.500	3.3477e-03
 9.750	17.750	3.5797e-03
 9.750	18.000	3.9784e-03
 9.750	18.250	4.6677e-03
 9.750	18.500	5.7593e-03
 9.750	18.750	7.0838e-03
 9.750	19.000	7.4115e-03
 9.750	19.250	7.5995e-03
 9.750	19.500	7.9217e-03
 9.750	19.750	7.9384e-03
 9.750	20.000	7.9422e-03
 9.750	20.250	7.9458e-03
 9.750	20.500	7.9492e-03
 9.750	20.750	7.9524e-03
 9.750	21.000	7.9549e-03
 9.750	21.250	7.9567e-03
 9.750	21.500	7.9577e-03
 9.750	21.750	7.9586e-03
 9.750	22.000	7.9590e-03
 9.750	22.250	7.9593e-03
 9.750	22.500	7.9593e-03
 9.750	22.750	7.9594e-03
 9.750	23.000	7.9594e-03
 9.750	23.250	7.9594e-03
 9.750	23.500	7.9594e-03
 9.750	23.750	7.9594e-03
 9.750	24.000	7.9594e-03
10.000	17.000	3.1093e-03
10.000	17.250	3.1079e-03
10.000	17.500	3.1895e-03
10.000	17.750	3.3803e-03
10.000	18.000	3.7244e-03
10.000	18.250	4.2590e-03
10.000	18.500	5.0959e-03
10.000	18.750	6.2839e-03
10.000	19.000	7.2827e-03
10.000	19.250	7.4101e-03
10.000	19.500	7.5950e-03
10.000	19.750	7.9172e-03
10.000	20.000	7.9381e-03
10.000	20.250	7.9421e-03
10.000	20.500	7.9458e-03
10.000	20.750	7.9493e-03
10.000	21.000	7.9525e-03
10.000	21.250	7.9551e-03
10.000	21.500	7.9568e-03
10.000	21.750	7.9577e-03
10.000	22.000	7.9586e-03
10.000	22.250	7.9591e-03
10.000	22.500	7.9593e-03
10.000	22.750	7.9593e-03
10.000	23.000	7.9594e-03
10.000	23.250	7.9594e-03
10.000	23.500	7.9594e-03
10.000	23.750	7.9594e-03
10.000	24.000	7.9594e-03
10.250	17.000	3.1274e-03
10.250	17.250	3.0598e-03
10.250	17.500	3.0826e-03
10.250	17.750	3.2393e-03
10.250	18.000	3.5633e-03
10.250	18.250	4.0282e-03
10.250	18.500	4.6955e-03
10.250	18.750	5.6491e-03
10.250	19.000	6.8080e-03
10.250	19.250	7.3093e-03
10.250	19.500	7.4091e-03
10.250	19.750	7.5898e-03
10.250	20.000	7.9105e-03
10.250	20.250	7.9377e-03
10.250	20.500	7.9421e-03
10.250	20.750	7.9458e-03
10.250	21.000	7.9493e-03
10.250	21.250	7.9526e-03
10.250	21.500	7.9552e-03
10.250	21.750	7.9569e-03
10.250	22.000	7.9577e-03
10.250	22.250	7.9587e-03
10.250	22.500	7.9593e-03
10.250	22.750	7.9593e-03
10.250	23.000	7.9593e-03
10.250	23.250	7.9594e-03
10.250	23.500	7.9594e-03
10.250	23.750	7.9594e-03
10.250	24.000	7.9594e-03
10.500	17.000	3.1872e-03
10.500	17.250	3.0693e-03
10.500	17.500	3.0346e-03
10.500	17.750	3.1514e-03
10.500	18.000	3.4500e-03
10.500	18.250	3.8858e-03
10.500	18.500	4.4265e-03
10.500	18.750	5.1255e-03
10.500	19.000	6.0644e-03
10.500	19.250	7.0951e-03
10.500	19.500	7.3085e-03
10.500	19.750	7.4086e-03
10.500	20.000	7.5853e-03
10.500	20.250	7.9024e-03
10.500	20.500	7.9371e-03
10.500	20.750	7.9418e-03
10.500	21.000	7.9458e-03
10.500	21.250	7.9494e-03
10.500	21.500	7.9526e-03
10.500	21.750	7.9552e-03
10.500	22.000	7.9570e-03
10.500	22.250	7.9578e-03
10.500	22.500	7.9587e-03
10.500	22.750	7.9593e-03
10.500	23.000	7.9593e-03
10.500	23.250	7.9593e-03
10.500	23.500	7.9594e-03
10.500	23.750	7.9594e-03
10.500	24.000	7.9594e-03
10.750	17.000	3.2625e-03
10.750	17.250	3.1205e-03
10.750	17.500	3.0452e-03
10.750	17.750	3.1212e-03
10.750	18.000	3.3630e-03
10.750	18.250	3.7198e-03
10.750	18.500	4.1403e-03
10.750	18.750	4.6481e-03
10.750	19.000	5.3653e-03
10.750	19.250	6.3472e-03
10.750	19.500	7.1816e-03
10.750	19.750	7.3097e-03
10.750	20.000	7.4088e-03
10.750	20.250	7.5826e-03
10.750	20.500	7.8960e-03
10.750	20.750	7.9366e-03
10.750	21.000	7.9416e-03
10.750	21.250	7.9458e-03
10.750	21.500	7.9494e-03
10.750	21.750	7.9526e-03
10.750	22.000	7.9552e-03
10.750	22.250	7.9571e-03
10.750	22.500	7.9580e-03
10.750	22.750	7.9587e-03
10.750	23.000	7.9593e-03
10.750	23.250	7.9594e-03
10.750	23.500	7.9594e-03
10.750	23.750	7.9594e-03
10.750	24.000	7.9594e-03
11.000	17.000	3.3249e-03
11.000	17.250	3.1853e-03
11.000	17.500	3.0926e-03
11.000	17.750	3.1300e-03
11.000	18.000	3.2987e-03
11.000	18.250	3.5394e-03
11.000	18.500	3.8452e-03
11.000	18.750	4.2372e-03
11.000	19.000	4.7815e-03
11.000	19.250	5.5603e-03
11.000	19.500	6.5868e-03
11.000	19.750	7.1838e-03
11.000	20.000	7.3110e-03
11.000	20.250	7.4098e-03
11.000	20.500	7.5839e-03
11.000	20.750	7.8950e-03
11.000	21.000	7.9360e-03
11.000	21.250	7.9412e-03
11.000	21.500	7.9456e-03
11.000	21.750	7.9494e-03
11.000	22.000	7.9526e-03
11.000	22.250	7.9552e-03
11.000	22.500	7.9571e-03
11.000	22.750	7.9581e-03
11.000	23.000	7.9588e-03
11.000	23.250	7.9593e-03
11.000	23.500	7.9595e-03
11.000	23.750	7.9595e-03
11.000	24.000	7.9595e-03
11.250	17.000	3.3415e-03
11.250	17.250	3.2320e-03
11.250	17.500	3.1393e-03
11.250	17.750	3.1467e-03
11.250	18.000	3.2440e-03
11.250	18.250	3.3739e-03
11.250	18.500	3.5703e-03
11.250	18.750	3.8811e-03
11.250	19.000	4.2987e-03
11.250	19.250	4.8905e-03
11.250	19.500	5.7292e-03
11.250	19.750	6.7545e-03
11.250	20.000	7.1825e-03
11.250	20.250	7.3121e-03
11.250	20.500	7.4135e-03
11.250	20.750	7.5916e-03
11.250	21.000	7.9049e-03
11.250	21.250	7.9356e-03
11.250	21.500	7.9410e-03
11.250	21.750	7.9455e-03
11.250	22.000	7.9493e-03
11.250	22.250	7.9526e-03
11.250	22.500	7.9552e-03
11.250	22.750	7.9572e-03
11.250	23.000	7.9581e-03
11.250	23.250	7.9590e-03
11.250	23.500	7.9593e-03
11.250	23.750	7.9596e-03
11.250	24.000	7.9596e-03
11.500	17.000	3.2728e-03
11.500	17.250	3.2233e-03
11.500	17.500	3.1484e-03
11.500	17.750	3.1355e-03
11.500	18.000	3.1787e-03
11.500	18.250	3.2421e-03
11.500	18.500	3.3580e-03
11.500	18.750	3.5746e-03
11.500	19.000	3.8995e-03
11.500	19.250	4.3455e-03
11.500	19.500	4.9802e-03
11.500	19.750	5.8613e-03
11.500	20.000	6.8760e-03
11.500	20.250	7.1979e-03
11.500	20.500	7.3147e-03
11.500	20.750	7.4199e-03
11.500	21.000	7.6127e-03
11.500	21.250	7.9205e-03
11.500	21.500	7.9351e-03
11.500	21.750	7.9407e-03
11.500	22.000	7.9453e-03
11.500	22.250	7.9493e-03
11.500	22.500	7.9526e-03
11.500	22.750	7.9552e-03
11.500	23.000	7.9572e-03
11.500	23.250	7.9581e-03
11.500	23.500	7.9591e-03
11.500	23.750	7.9594e-03
11.500	24.000	7.9596e-03
11.750	17.000	3.0568e-03
11.750	17.250	3.1077e-03
11.750	17.500	3.0800e-03
11.750	17.750	3.0726e-03
11.750	18.000	3.0951e-03
11.750	18.250	3.1347e-03
11.750	18.500	3.1997e-03
11.750	18.750	3.3271e-03
11.750	19.000	3.5585e-03
11.750	19.250	3.8985e-03
11.750	19.500	4.3730e-03
11.750	19.750	5.0434e-03
11.750	20.000	5.9629e-03
11.750	20.250	6.9511e-03
11.750	20.500	7.2353e-03
11.750	20.750	7.3196e-03
11.750	21.000	7.4368e-03
11.750	21.250	7.6639e-03
11.750	21.500	7.9248e-03
11.750	21.750	7.9346e-03
11.750	22.000	7.9403e-03
11.750	22.250	7.9452e-03
11.750	22.500	7.9491e-03
11.750	22.750	7.9525e-03
11.750	23.000	7.9551e-03
11.750	23.250	7.9571e-03
11.750	23.500	7.9582e-03
11.750	23.750	7.9591e-03
11.750	24.000	7.9597e-03
12.000	17.000	2.6399e-03
12.000	17.250	2.8301e-03
12.000	17.500	2.8977e-03
12.000	17.750	2.9433e-03
12.000	18.000	2.9864e-03
12.000	18.250	3.0202e-03
12.000	18.500	3.0568e-03
12.000	18.750	3.1281e-03
12.000	19.000	3.2737e-03
12.000	19.250	3.5187e-03
12.000	19.500	3.8778e-03
12.000	19.750	4.3770e-03
12.000	20.000	5.0796e-03
12.000	20.250	6.0347e-03
12.000	20.500	6.9987e-03
12.000	20.750	7.2350e-03
12.000	21.000	7.3316e-03
12.000	21.250	7.4826e-03
12.000	21.500	7.7542e-03
12.000	21.750	7.9254e-03
12.000	22.000	7.9343e-03
12.000	22.250	7.9402e-03
12.000	22.500	7.9450e-03
12.000	22.750	7.9491e-03
12.000	23.000	7.9524e-03
12.000	23.250	7.9551e-03
12.000	23.500	7.9571e-03
12.000	23.750	7.9581e-03
12.000	24.000	7.9591e-03
12.250	17.000	2.0504e-03
12.250	17.250	2.3781e-03
12.250	17.500	2.5878e-03
12.250	17.750	2.7291e-03
12.250	18.000	2.8083e-03
12.250	18.250	2.8477e-03
12.250	18.500	2.8754e-03
12.250	18.750	2.9253e-03
12.250	19.000	3.0224e-03
12.250	19.250	3.1923e-03
12.250	19.500	3.4636e-03
12.250	19.750	3.8370e-03
12.250	20.000	4.3606e-03
12.250	20.250	5.0913e-03
12.250	20.500	6.0815e-03
12.250	20.750	7.0108e-03
12.250	21.000	7.2402e-03
12.250	21.250	7.3593e-03
12.250	21.500	7.5508e-03
12.250	21.750	7.8616e-03
12.250	22.000	7.9251e-03
12.250	22.250	7.9333e-03
12.250	22.500	7.9397e-03
12.250	22.750	7.9448e-03
12.250	23.000	7.9490e-03
12.250	23.250	7.9523e-03
12.250	23.500	7.9551e-03
12.250	23.750	7.9571e-03
12.250	24.000	7.9582e-03
12.500	17.000	1.4681e-03
12.500	17.250	1.8747e-03
12.500	17.500	2.1911e-03
12.500	17.750	2.3911e-03
12.500	18.000	2.5067e-03
12.500	18.250	2.5691e-03
12.500	18.500	2.6167e-03
12.500	18.750	2.6784e-03
12.500	19.000	2.7684e-03
12.500	19.250	2.9027e-03
12.500	19.500	3.1021e-03
12.500	19.750	3.3952e-03
12.500	20.000	3.7830e-03
12.500	20.250	4.3233e-03
12.500	20.500	5.0777e-03
12.500	20.750	6.1158e-03
12.500	21.000	7.0337e-03
12.500	21.250	7.2584e-03
12.500	21.500	7.4033e-03
12.500	21.750	7.6345e-03
12.500	22.000	7.9118e-03
12.500	22.250	7.9244e-03
12.500	22.500	7.9326e-03
12.500	22.750	7.9393e-03
12.500	23.000	7.9445e-03
12.500	23.250	7.9488e-03
12.500	23.500	7.9523e-03
12.500	23.750	7.9551e-03
12.500	24.000	7.9571e-03
12.750	17.000	1.0184e-03
12.750	17.250	1.3950e-03
12.750	17.500	1.6993e-03
12.750	17.750	1.9106e-03
12.750	18.000	2.0604e-03
12.750	18.250	2.1709e-03
12.750	18.500	2.2651e-03
12.750	18.750	2.3652e-03
12.750	19.000	2.4821e-03
12.750	19.250	2.6190e-03
12.750	19.500	2.7867e-03
12.750	19.750	3.0062e-03
12.750	20.000	3.3130e-03
12.750	20.250	3.7142e-03
12.750	20.500	4.2664e-03
12.750	20.750	5.0537e-03
12.750	21.000	6.1495e-03
12.750	21.250	7.0431e-03
12.750	21.500	7.2835e-03
12.750	21.750	7.4650e-03
12.750	22.000	7.7242e-03
12.750	22.250	7.9129e-03
12.750	22.500	7.9238e-03
12.750	22.750	7.9321e-03
12.750	23.000	7.9388e-03
12.750	23.250	7.9442e-03
12.750	23.500	7.9486e-03
12.750	23.750	7.9521e-03
12.750	24.000	7.9550e-03
13.000	17.000	6.3975e-04
13.000	17.250	8.9325e-04
13.000	17.500	1.1375e-03
13.000	17.750	1.3448e-03
13.000	18.000	1.5189e-03
13.000	18.250	1.6787e-03
13.000	18.500	1.8294e-03
13.000	18.750	1.9792e-03
13.000	19.000	2.1383e-03
13.000	19.250	2.3064e-03
13.000	19.500	2.4782e-03
13.000	19.750	2.6682e-03
13.000	20.000	2.9039e-03
13.000	20.250	3.2194e-03
13.000	20.500	3.6286e-03
13.000	20.750	4.1976e-03
13.000	21.000	5.0165e-03
13.000	21.250	6.1858e-03
13.000	21.500	7.0472e-03
13.000	21.750	7.3238e-03
13.000	22.000	7.5197e-03
13.000	22.250	7.7917e-03
13.000	22.500	7.9130e-03
13.000	22.750	7.9234e-03
13.000	23.000	7.9317e-03
13.000	23.250	7.9384e-03
13.000	23.500	7.9440e-03
13.000	23.750	7.9483e-03
13.000	24.000	7.9519e-03
13.250	17.000	4.1144e-04
13.250	17.250	5.6551e-04
13.250	17.500	7.0403e-04
13.250	17.750	8.4214e-04
13.250	18.000	9.9276e-04
13.250	18.250	1.1614e-03
13.250	18.500	1.3455e-03
13.250	18.750	1.5396e-03
13.250	19.000	1.7398e-03
13.250	19.250	1.9450e-03
13.250	19.500	2.1459e-03
13.250	19.750	2.3448e-03
13.250	20.000	2.5497e-03
13.250	20.250	2.7897e-03
13.250	20.500	3.1076e-03
13.250	20.750	3.5237e-03
13.250	21.000	4.1110e-03
13.250	21.250	4.9747e-03
13.250	21.500	6.1806e-03
13.250	21.750	7.0900e-03
13.250	22.000	7.3394e-03
13.250	22.250	7.5604e-03
13.250	22.500	7.8133e-03
13.250	22.750	7.9127e-03
13.250	23.000	7.9228e-03
13.250	23.250	7.9309e-03
13.250	23.500	7.9379e-03
13.250	23.750	7.9436e-03
13.250	24.000	7.9480e-03
13.500	17.000	2.7457e-04
13.500	17.250	3.6922e-04
13.500	17.500	4.5103e-04
13.500	17.750	5.2132e-04
13.500	18.000	6.0971e-04
13.500	18.250	7.3243e-04
13.500	18.500	8.9391e-04
13.500	18.750	1.0909e-03
13.500	19.000	1.3104e-03
13.500	19.250	1.5402e-03
13.500	19.500	1.7677e-03
13.500	19.750	1.9869e-03
13.500	20.000	2.1951e-03
13.500	20.250	2.4098e-03
13.500	20.500	2.6556e-03
13.500	20.750	2.9747e-03
13.500	21.000	3.3895e-03
13.500	21.250	3.9942e-03
13.500	21.500	4.8638e-03
13.500	21.750	6.1494e-03
13.500	22.000	7.1106e-03
13.500	22.250	7.3386e-03
13.500	22.500	7.5511e-03
13.500	22.750	7.8017e-03
13.500	23.000	7.9119e-03
13.500	23.250	7.9220e-03
13.500	23.500	7.9305e-03
13.500	23.750	7.9376e-03
13.500	24.000	7.9431e-03
13.750	17.000	1.9169e-04
13.750	17.250	2.5251e-04
13.750	17.500	3.0239e-04
13.750	17.750	3.4099e-04
13.750	18.000	3.8889e-04
13.750	18.250	4.6379e-04
13.750	18.500	5.7045e-04
13.750	18.750	7.1531e-04
13.750	19.000	9.0346e-04
13.750	19.250	1.1272e-03
13.750	19.500	1.3652e-03
13.750	19.750	1.6012e-03
13.750	20.000	1.8258e-03
13.750	20.250	2.0383e-03
13.750	20.500	2.2551e-03
13.750	20.750	2.5037e-03
13.750	21.000	2.8195e-03
13.750	21.250	3.2356e-03
13.750	21.500	3.8400e-03
13.750	21.750	4.7509e-03
13.750	22.000	6.1207e-03
13.750	22.250	7.1286e-03
13.750	22.500	7.3145e-03
13.750	22.750	7.5407e-03
13.750	23.000	7.7963e-03
13.750	23.250	7.9102e-03
13.750	23.500	7.9207e-03
13.750	23.750	7.9297e-03
13.750	24.000	7.9368e-03
14.000	17.000	1.3885e-04
14.000	17.250	1.8189e-04
14.000	17.500	2.1556e-04
14.000	17.750	2.3770e-04
14.000	18.000	2.6428e-04
14.000	18.250	3.0798e-04
14.000	18.500	3.7317e-04
14.000	18.750	4.6617e-04
14.000	19.000	5.9342e-04
14.000	19.250	7.6387e-04
14.000	19.500	9.7597e-04
14.000	19.750	1.2089e-03
14.000	20.000	1.4424e-03
14.000	20.250	1.6659e-03
14.000	20.500	1.8765e-03
14.000	20.750	2.0910e-03
14.000	21.000	2.3380e-03
14.000	21.250	2.6507e-03
14.000	21.500	3.0747e-03
14.000	21.750	3.6827e-03
14.000	22.000	4.6408e-03
14.000	22.250	6.1427e-03
14.000	22.500	7.1384e-03
14.000	22.750	7.3023e-03
14.000	23.000	7.5296e-03
14.000	23.250	7.8083e-03
14.000	23.500	7.9077e-03
14.000	23.750	7.9186e-03
14.000	24.000	7.9282e-03
