InwC 1064.34A  relative to Inci 1215.00A scaled to 1215A.
Hden   Phi(H)  Eq_Width (A)
 7.000	17.000	7.9860e-03
 7.000	17.250	7.9895e-03
 7.000	17.500	7.9928e-03
 7.000	17.750	7.9962e-03
 7.000	18.000	7.9996e-03
 7.000	18.250	8.0025e-03
 7.000	18.500	8.0044e-03
 7.000	18.750	8.0054e-03
 7.000	19.000	8.0064e-03
 7.000	19.250	8.0071e-03
 7.000	19.500	8.0073e-03
 7.000	19.750	8.0075e-03
 7.000	20.000	8.0076e-03
 7.000	20.250	8.0076e-03
 7.000	20.500	8.0077e-03
 7.000	20.750	8.0077e-03
 7.000	21.000	8.0077e-03
 7.000	21.250	8.0077e-03
 7.000	21.500	8.0078e-03
 7.000	21.750	8.0077e-03
 7.000	22.000	8.0077e-03
 7.000	22.250	8.0077e-03
 7.000	22.500	8.0077e-03
 7.000	22.750	8.0079e-03
 7.000	23.000	8.0079e-03
 7.000	23.250	8.0077e-03
 7.000	23.500	8.0077e-03
 7.000	23.750	8.0077e-03
 7.000	24.000	8.0077e-03
 7.250	17.000	7.9728e-03
 7.250	17.250	7.9860e-03
 7.250	17.500	7.9895e-03
 7.250	17.750	7.9928e-03
 7.250	18.000	7.9962e-03
 7.250	18.250	7.9996e-03
 7.250	18.500	8.0025e-03
 7.250	18.750	8.0044e-03
 7.250	19.000	8.0054e-03
 7.250	19.250	8.0064e-03
 7.250	19.500	8.0071e-03
 7.250	19.750	8.0073e-03
 7.250	20.000	8.0075e-03
 7.250	20.250	8.0076e-03
 7.250	20.500	8.0076e-03
 7.250	20.750	8.0076e-03
 7.250	21.000	8.0077e-03
 7.250	21.250	8.0077e-03
 7.250	21.500	8.0077e-03
 7.250	21.750	8.0092e-03
 7.250	22.000	8.0077e-03
 7.250	22.250	8.0077e-03
 7.250	22.500	8.0077e-03
 7.250	22.750	8.0085e-03
 7.250	23.000	8.0085e-03
 7.250	23.250	8.0077e-03
 7.250	23.500	8.0077e-03
 7.250	23.750	8.0077e-03
 7.250	24.000	8.0077e-03
 7.500	17.000	7.6452e-03
 7.500	17.250	7.9734e-03
 7.500	17.500	7.9861e-03
 7.500	17.750	7.9895e-03
 7.500	18.000	7.9928e-03
 7.500	18.250	7.9962e-03
 7.500	18.500	7.9996e-03
 7.500	18.750	8.0025e-03
 7.500	19.000	8.0044e-03
 7.500	19.250	8.0054e-03
 7.500	19.500	8.0064e-03
 7.500	19.750	8.0071e-03
 7.500	20.000	8.0073e-03
 7.500	20.250	8.0075e-03
 7.500	20.500	8.0075e-03
 7.500	20.750	8.0076e-03
 7.500	21.000	8.0076e-03
 7.500	21.250	8.0076e-03
 7.500	21.500	8.0077e-03
 7.500	21.750	8.0077e-03
 7.500	22.000	8.0077e-03
 7.500	22.250	8.0077e-03
 7.500	22.500	8.0077e-03
 7.500	22.750	8.0077e-03
 7.500	23.000	8.0081e-03
 7.500	23.250	8.0085e-03
 7.500	23.500	8.0077e-03
 7.500	23.750	8.0086e-03
 7.500	24.000	8.0077e-03
 7.750	17.000	7.7100e-03
 7.750	17.250	7.6467e-03
 7.750	17.500	7.9739e-03
 7.750	17.750	7.9861e-03
 7.750	18.000	7.9895e-03
 7.750	18.250	7.9928e-03
 7.750	18.500	7.9963e-03
 7.750	18.750	7.9996e-03
 7.750	19.000	8.0025e-03
 7.750	19.250	8.0044e-03
 7.750	19.500	8.0054e-03
 7.750	19.750	8.0064e-03
 7.750	20.000	8.0071e-03
 7.750	20.250	8.0073e-03
 7.750	20.500	8.0075e-03
 7.750	20.750	8.0075e-03
 7.750	21.000	8.0076e-03
 7.750	21.250	8.0076e-03
 7.750	21.500	8.0076e-03
 7.750	21.750	8.0076e-03
 7.750	22.000	8.0076e-03
 7.750	22.250	8.0077e-03
 7.750	22.500	8.0077e-03
 7.750	22.750	8.0078e-03
 7.750	23.000	8.0079e-03
 7.750	23.250	8.0077e-03
 7.750	23.500	8.0085e-03
 7.750	23.750	8.0085e-03
 7.750	24.000	8.0077e-03
 8.000	17.000	7.3058e-03
 8.000	17.250	7.7188e-03
 8.000	17.500	7.6440e-03
 8.000	17.750	7.9727e-03
 8.000	18.000	7.9861e-03
 8.000	18.250	7.9895e-03
 8.000	18.500	7.9928e-03
 8.000	18.750	7.9963e-03
 8.000	19.000	7.9996e-03
 8.000	19.250	8.0025e-03
 8.000	19.500	8.0044e-03
 8.000	19.750	8.0054e-03
 8.000	20.000	8.0064e-03
 8.000	20.250	8.0071e-03
 8.000	20.500	8.0073e-03
 8.000	20.750	8.0075e-03
 8.000	21.000	8.0075e-03
 8.000	21.250	8.0076e-03
 8.000	21.500	8.0076e-03
 8.000	21.750	8.0076e-03
 8.000	22.000	8.0076e-03
 8.000	22.250	8.0076e-03
 8.000	22.500	8.0076e-03
 8.000	22.750	8.0078e-03
 8.000	23.000	8.0076e-03
 8.000	23.250	8.0081e-03
 8.000	23.500	8.0076e-03
 8.000	23.750	8.0076e-03
 8.000	24.000	8.0077e-03
 8.250	17.000	6.3565e-03
 8.250	17.250	7.2777e-03
 8.250	17.500	7.7141e-03
 8.250	17.750	7.6451e-03
 8.250	18.000	7.9731e-03
 8.250	18.250	7.9861e-03
 8.250	18.500	7.9895e-03
 8.250	18.750	7.9929e-03
 8.250	19.000	7.9963e-03
 8.250	19.250	7.9997e-03
 8.250	19.500	8.0025e-03
 8.250	19.750	8.0044e-03
 8.250	20.000	8.0054e-03
 8.250	20.250	8.0064e-03
 8.250	20.500	8.0071e-03
 8.250	20.750	8.0073e-03
 8.250	21.000	8.0075e-03
 8.250	21.250	8.0075e-03
 8.250	21.500	8.0076e-03
 8.250	21.750	8.0076e-03
 8.250	22.000	8.0076e-03
 8.250	22.250	8.0076e-03
 8.250	22.500	8.0076e-03
 8.250	22.750	8.0077e-03
 8.250	23.000	8.0076e-03
 8.250	23.250	8.0096e-03
 8.250	23.500	8.0076e-03
 8.250	23.750	8.0076e-03
 8.250	24.000	8.0081e-03
 8.500	17.000	5.6705e-03
 8.500	17.250	6.3095e-03
 8.500	17.500	7.2526e-03
 8.500	17.750	7.7077e-03
 8.500	18.000	7.6461e-03
 8.500	18.250	7.9733e-03
 8.500	18.500	7.9861e-03
 8.500	18.750	7.9895e-03
 8.500	19.000	7.9929e-03
 8.500	19.250	7.9964e-03
 8.500	19.500	7.9997e-03
 8.500	19.750	8.0025e-03
 8.500	20.000	8.0044e-03
 8.500	20.250	8.0054e-03
 8.500	20.500	8.0064e-03
 8.500	20.750	8.0071e-03
 8.500	21.000	8.0073e-03
 8.500	21.250	8.0075e-03
 8.500	21.500	8.0075e-03
 8.500	21.750	8.0076e-03
 8.500	22.000	8.0076e-03
 8.500	22.250	8.0076e-03
 8.500	22.500	8.0076e-03
 8.500	22.750	8.0076e-03
 8.500	23.000	8.0076e-03
 8.500	23.250	8.0077e-03
 8.500	23.500	8.0076e-03
 8.500	23.750	8.0076e-03
 8.500	24.000	8.0076e-03
 8.750	17.000	5.3046e-03
 8.750	17.250	5.6202e-03
 8.750	17.500	6.2720e-03
 8.750	17.750	7.2480e-03
 8.750	18.000	7.6984e-03
 8.750	18.250	7.6467e-03
 8.750	18.500	7.9734e-03
 8.750	18.750	7.9860e-03
 8.750	19.000	7.9895e-03
 8.750	19.250	7.9930e-03
 8.750	19.500	7.9964e-03
 8.750	19.750	7.9997e-03
 8.750	20.000	8.0025e-03
 8.750	20.250	8.0044e-03
 8.750	20.500	8.0054e-03
 8.750	20.750	8.0064e-03
 8.750	21.000	8.0071e-03
 8.750	21.250	8.0073e-03
 8.750	21.500	8.0075e-03
 8.750	21.750	8.0075e-03
 8.750	22.000	8.0076e-03
 8.750	22.250	8.0076e-03
 8.750	22.500	8.0076e-03
 8.750	22.750	8.0076e-03
 8.750	23.000	8.0083e-03
 8.750	23.250	8.0076e-03
 8.750	23.500	8.0077e-03
 8.750	23.750	8.0076e-03
 8.750	24.000	8.0076e-03
 9.000	17.000	5.1696e-03
 9.000	17.250	5.2509e-03
 9.000	17.500	5.5776e-03
 9.000	17.750	6.2422e-03
 9.000	18.000	7.2385e-03
 9.000	18.250	7.6700e-03
 9.000	18.500	7.6467e-03
 9.000	18.750	7.9733e-03
 9.000	19.000	7.9860e-03
 9.000	19.250	7.9895e-03
 9.000	19.500	7.9930e-03
 9.000	19.750	7.9965e-03
 9.000	20.000	7.9998e-03
 9.000	20.250	8.0025e-03
 9.000	20.500	8.0044e-03
 9.000	20.750	8.0054e-03
 9.000	21.000	8.0064e-03
 9.000	21.250	8.0071e-03
 9.000	21.500	8.0073e-03
 9.000	21.750	8.0074e-03
 9.000	22.000	8.0075e-03
 9.000	22.250	8.0075e-03
 9.000	22.500	8.0075e-03
 9.000	22.750	8.0076e-03
 9.000	23.000	8.0076e-03
 9.000	23.250	8.0076e-03
 9.000	23.500	8.0076e-03
 9.000	23.750	8.0076e-03
 9.000	24.000	8.0077e-03
 9.250	17.000	5.1877e-03
 9.250	17.250	5.1128e-03
 9.250	17.500	5.2091e-03
 9.250	17.750	5.5669e-03
 9.250	18.000	6.2811e-03
 9.250	18.250	7.2812e-03
 9.250	18.500	7.6001e-03
 9.250	18.750	7.6461e-03
 9.250	19.000	7.9726e-03
 9.250	19.250	7.9858e-03
 9.250	19.500	7.9895e-03
 9.250	19.750	7.9931e-03
 9.250	20.000	7.9965e-03
 9.250	20.250	7.9998e-03
 9.250	20.500	8.0026e-03
 9.250	20.750	8.0044e-03
 9.250	21.000	8.0054e-03
 9.250	21.250	8.0064e-03
 9.250	21.500	8.0067e-03
 9.250	21.750	8.0068e-03
 9.250	22.000	8.0067e-03
 9.250	22.250	8.0070e-03
 9.250	22.500	8.0072e-03
 9.250	22.750	8.0072e-03
 9.250	23.000	8.0073e-03
 9.250	23.250	8.0074e-03
 9.250	23.500	8.0074e-03
 9.250	23.750	8.0074e-03
 9.250	24.000	8.0074e-03
 9.500	17.000	5.2990e-03
 9.500	17.250	5.1286e-03
 9.500	17.500	5.0819e-03
 9.500	17.750	5.2304e-03
 9.500	18.000	5.6330e-03
 9.500	18.250	6.4030e-03
 9.500	18.500	7.4377e-03
 9.500	18.750	7.4500e-03
 9.500	19.000	7.6444e-03
 9.500	19.250	7.9712e-03
 9.500	19.500	7.9858e-03
 9.500	19.750	7.9895e-03
 9.500	20.000	7.9931e-03
 9.500	20.250	7.9965e-03
 9.500	20.500	7.9998e-03
 9.500	20.750	8.0021e-03
 9.500	21.000	8.0040e-03
 9.500	21.250	8.0049e-03
 9.500	21.500	8.0058e-03
 9.500	21.750	8.0063e-03
 9.500	22.000	8.0066e-03
 9.500	22.250	8.0067e-03
 9.500	22.500	8.0067e-03
 9.500	22.750	8.0067e-03
 9.500	23.000	8.0067e-03
 9.500	23.250	8.0067e-03
 9.500	23.500	8.0067e-03
 9.500	23.750	8.0068e-03
 9.500	24.000	8.0067e-03
 9.750	17.000	5.4622e-03
 9.750	17.250	5.2363e-03
 9.750	17.500	5.0948e-03
 9.750	17.750	5.1029e-03
 9.750	18.000	5.3240e-03
 9.750	18.250	5.8526e-03
 9.750	18.500	6.7258e-03
 9.750	18.750	7.6092e-03
 9.750	19.000	7.4468e-03
 9.750	19.250	7.6412e-03
 9.750	19.500	7.9685e-03
 9.750	19.750	7.9854e-03
 9.750	20.000	7.9894e-03
 9.750	20.250	7.9931e-03
 9.750	20.500	7.9965e-03
 9.750	20.750	7.9997e-03
 9.750	21.000	8.0022e-03
 9.750	21.250	8.0040e-03
 9.750	21.500	8.0050e-03
 9.750	21.750	8.0059e-03
 9.750	22.000	8.0063e-03
 9.750	22.250	8.0066e-03
 9.750	22.500	8.0067e-03
 9.750	22.750	8.0067e-03
 9.750	23.000	8.0067e-03
 9.750	23.250	8.0067e-03
 9.750	23.500	8.0067e-03
 9.750	23.750	8.0067e-03
 9.750	24.000	8.0067e-03
10.000	17.000	5.6425e-03
10.000	17.250	5.3839e-03
10.000	17.500	5.1799e-03
10.000	17.750	5.1129e-03
10.000	18.000	5.2568e-03
10.000	18.250	5.6203e-03
10.000	18.500	6.2740e-03
10.000	18.750	7.1732e-03
10.000	19.000	7.6192e-03
10.000	19.250	7.4449e-03
10.000	19.500	7.6362e-03
10.000	19.750	7.9636e-03
10.000	20.000	7.9850e-03
10.000	20.250	7.9893e-03
10.000	20.500	7.9931e-03
10.000	20.750	7.9965e-03
10.000	21.000	7.9998e-03
10.000	21.250	8.0024e-03
10.000	21.500	8.0040e-03
10.000	21.750	8.0050e-03
10.000	22.000	8.0059e-03
10.000	22.250	8.0064e-03
10.000	22.500	8.0066e-03
10.000	22.750	8.0067e-03
10.000	23.000	8.0067e-03
10.000	23.250	8.0067e-03
10.000	23.500	8.0067e-03
10.000	23.750	8.0067e-03
10.000	24.000	8.0067e-03
10.250	17.000	5.8184e-03
10.250	17.250	5.5551e-03
10.250	17.500	5.3254e-03
10.250	17.750	5.2239e-03
10.250	18.000	5.3332e-03
10.250	18.250	5.6145e-03
10.250	18.500	6.1042e-03
10.250	18.750	6.8257e-03
10.250	19.000	7.5662e-03
10.250	19.250	7.3489e-03
10.250	19.500	7.4440e-03
10.250	19.750	7.6308e-03
10.250	20.000	7.9565e-03
10.250	20.250	7.9844e-03
10.250	20.500	7.9891e-03
10.250	20.750	7.9931e-03
10.250	21.000	7.9965e-03
10.250	21.250	7.9998e-03
10.250	21.500	8.0025e-03
10.250	21.750	8.0041e-03
10.250	22.000	8.0050e-03
10.250	22.250	8.0060e-03
10.250	22.500	8.0066e-03
10.250	22.750	8.0066e-03
10.250	23.000	8.0067e-03
10.250	23.250	8.0067e-03
10.250	23.500	8.0067e-03
10.250	23.750	8.0067e-03
10.250	24.000	8.0067e-03
10.500	17.000	5.9612e-03
10.500	17.250	5.7180e-03
10.500	17.500	5.4935e-03
10.500	17.750	5.3945e-03
10.500	18.000	5.4940e-03
10.500	18.250	5.7470e-03
10.500	18.500	6.0948e-03
10.500	18.750	6.5612e-03
10.500	19.000	7.1786e-03
10.500	19.250	7.6593e-03
10.500	19.500	7.3384e-03
10.500	19.750	7.4438e-03
10.500	20.000	7.6261e-03
10.500	20.250	7.9480e-03
10.500	20.500	7.9837e-03
10.500	20.750	7.9888e-03
10.500	21.000	7.9930e-03
10.500	21.250	7.9966e-03
10.500	21.500	7.9998e-03
10.500	21.750	8.0026e-03
10.500	22.000	8.0044e-03
10.500	22.250	8.0051e-03
10.500	22.500	8.0060e-03
10.500	22.750	8.0066e-03
10.500	23.000	8.0067e-03
10.500	23.250	8.0067e-03
10.500	23.500	8.0067e-03
10.500	23.750	8.0067e-03
10.500	24.000	8.0067e-03
10.750	17.000	6.0461e-03
10.750	17.250	5.8460e-03
10.750	17.500	5.6487e-03
10.750	17.750	5.5732e-03
10.750	18.000	5.6594e-03
10.750	18.250	5.8444e-03
10.750	18.500	6.0542e-03
10.750	18.750	6.3142e-03
10.750	19.000	6.7561e-03
10.750	19.250	7.3623e-03
10.750	19.500	7.5495e-03
10.750	19.750	7.3398e-03
10.750	20.000	7.4444e-03
10.750	20.250	7.6233e-03
10.750	20.500	7.9412e-03
10.750	20.750	7.9830e-03
10.750	21.000	7.9885e-03
10.750	21.250	7.9929e-03
10.750	21.500	7.9966e-03
10.750	21.750	7.9998e-03
10.750	22.000	8.0026e-03
10.750	22.250	8.0044e-03
10.750	22.500	8.0053e-03
10.750	22.750	8.0060e-03
10.750	23.000	8.0067e-03
10.750	23.250	8.0067e-03
10.750	23.500	8.0067e-03
10.750	23.750	8.0067e-03
10.750	24.000	8.0067e-03
11.000	17.000	6.0474e-03
11.000	17.250	5.9104e-03
11.000	17.500	5.7542e-03
11.000	17.750	5.6969e-03
11.000	18.000	5.7641e-03
11.000	18.250	5.8650e-03
11.000	18.500	5.9739e-03
11.000	18.750	6.1263e-03
11.000	19.000	6.4112e-03
11.000	19.250	6.8928e-03
11.000	19.500	7.4934e-03
11.000	19.750	7.2942e-03
11.000	20.000	7.3414e-03
11.000	20.250	7.4456e-03
11.000	20.500	7.6244e-03
11.000	20.750	7.9398e-03
11.000	21.000	7.9821e-03
11.000	21.250	7.9881e-03
11.000	21.500	7.9928e-03
11.000	21.750	7.9965e-03
11.000	22.000	7.9998e-03
11.000	22.250	8.0026e-03
11.000	22.500	8.0044e-03
11.000	22.750	8.0054e-03
11.000	23.000	8.0062e-03
11.000	23.250	8.0067e-03
11.000	23.500	8.0068e-03
11.000	23.750	8.0068e-03
11.000	24.000	8.0068e-03
11.250	17.000	5.9246e-03
11.250	17.250	5.8784e-03
11.250	17.500	5.7681e-03
11.250	17.750	5.7235e-03
11.250	18.000	5.7668e-03
11.250	18.250	5.8072e-03
11.250	18.500	5.8570e-03
11.250	18.750	5.9733e-03
11.250	19.000	6.1528e-03
11.250	19.250	6.4810e-03
11.250	19.500	7.0053e-03
11.250	19.750	7.5409e-03
11.250	20.000	7.2247e-03
11.250	20.250	7.3426e-03
11.250	20.500	7.4497e-03
11.250	20.750	7.6321e-03
11.250	21.000	7.9494e-03
11.250	21.250	7.9815e-03
11.250	21.500	7.9876e-03
11.250	21.750	7.9926e-03
11.250	22.000	7.9965e-03
11.250	22.250	7.9998e-03
11.250	22.500	8.0026e-03
11.250	22.750	8.0044e-03
11.250	23.000	8.0054e-03
11.250	23.250	8.0063e-03
11.250	23.500	8.0067e-03
11.250	23.750	8.0069e-03
11.250	24.000	8.0069e-03
11.500	17.000	5.6160e-03
11.500	17.250	5.6997e-03
11.500	17.500	5.6513e-03
11.500	17.750	5.6196e-03
11.500	18.000	5.6508e-03
11.500	18.250	5.6852e-03
11.500	18.500	5.7272e-03
11.500	18.750	5.8162e-03
11.500	19.000	5.9556e-03
11.500	19.250	6.1663e-03
11.500	19.500	6.5338e-03
11.500	19.750	7.0765e-03
11.500	20.000	7.5374e-03
11.500	20.250	7.2161e-03
11.500	20.500	7.3452e-03
11.500	20.750	7.4560e-03
11.500	21.000	7.6530e-03
11.500	21.250	7.9647e-03
11.500	21.500	7.9807e-03
11.500	21.750	7.9872e-03
11.500	22.000	7.9923e-03
11.500	22.250	7.9965e-03
11.500	22.500	7.9998e-03
11.500	22.750	8.0025e-03
11.500	23.000	8.0044e-03
11.500	23.250	8.0054e-03
11.500	23.500	8.0064e-03
11.500	23.750	8.0067e-03
11.500	24.000	8.0069e-03
11.750	17.000	5.0320e-03
11.750	17.250	5.2978e-03
11.750	17.500	5.3537e-03
11.750	17.750	5.3686e-03
11.750	18.000	5.4248e-03
11.750	18.250	5.4955e-03
11.750	18.500	5.5591e-03
11.750	18.750	5.6343e-03
11.750	19.000	5.7528e-03
11.750	19.250	5.9147e-03
11.750	19.500	6.1583e-03
11.750	19.750	6.5574e-03
11.750	20.000	7.1158e-03
11.750	20.250	7.4877e-03
11.750	20.500	7.2540e-03
11.750	20.750	7.3503e-03
11.750	21.000	7.4728e-03
11.750	21.250	7.7039e-03
11.750	21.500	7.9686e-03
11.750	21.750	7.9799e-03
11.750	22.000	7.9867e-03
11.750	22.250	7.9921e-03
11.750	22.500	7.9963e-03
11.750	22.750	7.9998e-03
11.750	23.000	8.0025e-03
11.750	23.250	8.0044e-03
11.750	23.500	8.0054e-03
11.750	23.750	8.0064e-03
11.750	24.000	8.0070e-03
12.000	17.000	4.1282e-03
12.000	17.250	4.6043e-03
12.000	17.500	4.8293e-03
12.000	17.750	4.9654e-03
12.000	18.000	5.0951e-03
12.000	18.250	5.2100e-03
12.000	18.500	5.3074e-03
12.000	18.750	5.3997e-03
12.000	19.000	5.5125e-03
12.000	19.250	5.6584e-03
12.000	19.500	5.8495e-03
12.000	19.750	6.1238e-03
12.000	20.000	6.5505e-03
12.000	20.250	7.1264e-03
12.000	20.500	7.4207e-03
12.000	20.750	7.2522e-03
12.000	21.000	7.3621e-03
12.000	21.250	7.5186e-03
12.000	21.500	7.7941e-03
12.000	21.750	7.9686e-03
12.000	22.000	7.9793e-03
12.000	22.250	7.9864e-03
12.000	22.500	7.9919e-03
12.000	22.750	7.9962e-03
12.000	23.000	7.9997e-03
12.000	23.250	8.0024e-03
12.000	23.500	8.0044e-03
12.000	23.750	8.0054e-03
12.000	24.000	8.0064e-03
12.250	17.000	3.0188e-03
12.250	17.250	3.6500e-03
12.250	17.500	4.0892e-03
12.250	17.750	4.4026e-03
12.250	18.000	4.6192e-03
12.250	18.250	4.7785e-03
12.250	18.500	4.9157e-03
12.250	18.750	5.0513e-03
12.250	19.000	5.1945e-03
12.250	19.250	5.3537e-03
12.250	19.500	5.5457e-03
12.250	19.750	5.7601e-03
12.250	20.000	6.0665e-03
12.250	20.250	6.5187e-03
12.250	20.500	7.1114e-03
12.250	20.750	7.3136e-03
12.250	21.000	7.2564e-03
12.250	21.250	7.3897e-03
12.250	21.500	7.5867e-03
12.250	21.750	7.9015e-03
12.250	22.000	7.9678e-03
12.250	22.250	7.9779e-03
12.250	22.500	7.9856e-03
12.250	22.750	7.9915e-03
12.250	23.000	7.9960e-03
12.250	23.250	7.9995e-03
12.250	23.500	8.0023e-03
12.250	23.750	8.0044e-03
12.250	24.000	8.0054e-03
12.500	17.000	2.0356e-03
12.500	17.250	2.6984e-03
12.500	17.500	3.2599e-03
12.500	17.750	3.6644e-03
12.500	18.000	3.9485e-03
12.500	18.250	4.1618e-03
12.500	18.500	4.3544e-03
12.500	18.750	4.5562e-03
12.500	19.000	4.7644e-03
12.500	19.250	4.9736e-03
12.500	19.500	5.1867e-03
12.500	19.750	5.4181e-03
12.500	20.000	5.6579e-03
12.500	20.250	5.9854e-03
12.500	20.500	6.4568e-03
12.500	20.750	7.0849e-03
12.500	21.000	7.2453e-03
12.500	21.250	7.2746e-03
12.500	21.500	7.4337e-03
12.500	21.750	7.6703e-03
12.500	22.000	7.9514e-03
12.500	22.250	7.9667e-03
12.500	22.500	7.9766e-03
12.500	22.750	7.9849e-03
12.500	23.000	7.9911e-03
12.500	23.250	7.9958e-03
12.500	23.500	7.9994e-03
12.500	23.750	8.0022e-03
12.500	24.000	8.0044e-03
12.750	17.000	1.3572e-03
12.750	17.250	1.9040e-03
12.750	17.500	2.3942e-03
12.750	17.750	2.7774e-03
12.750	18.000	3.0923e-03
12.750	18.250	3.3687e-03
12.750	18.500	3.6347e-03
12.750	18.750	3.9125e-03
12.750	19.000	4.2048e-03
12.750	19.250	4.4922e-03
12.750	19.500	4.7623e-03
12.750	19.750	5.0142e-03
12.750	20.000	5.2739e-03
12.750	20.250	5.5376e-03
12.750	20.500	5.8781e-03
12.750	20.750	6.3812e-03
12.750	21.000	7.0458e-03
12.750	21.250	7.1258e-03
12.750	21.500	7.2997e-03
12.750	21.750	7.4959e-03
12.750	22.000	7.7598e-03
12.750	22.250	7.9523e-03
12.750	22.500	7.9656e-03
12.750	22.750	7.9759e-03
12.750	23.000	7.9842e-03
12.750	23.250	7.9905e-03
12.750	23.500	7.9955e-03
12.750	23.750	7.9992e-03
12.750	24.000	8.0021e-03
13.000	17.000	8.4181e-04
13.000	17.250	1.1848e-03
13.000	17.500	1.5352e-03
13.000	17.750	1.8596e-03
13.000	18.000	2.1650e-03
13.000	18.250	2.4784e-03
13.000	18.500	2.8045e-03
13.000	18.750	3.1475e-03
13.000	19.000	3.5141e-03
13.000	19.250	3.8888e-03
13.000	19.500	4.2365e-03
13.000	19.750	4.5495e-03
13.000	20.000	4.8347e-03
13.000	20.250	5.1147e-03
13.000	20.500	5.3914e-03
13.000	20.750	5.7509e-03
13.000	21.000	6.2803e-03
13.000	21.250	7.0007e-03
13.000	21.500	7.0495e-03
13.000	21.750	7.3410e-03
13.000	22.000	7.5505e-03
13.000	22.250	7.8271e-03
13.000	22.500	7.9521e-03
13.000	22.750	7.9649e-03
13.000	23.000	7.9752e-03
13.000	23.250	7.9835e-03
13.000	23.500	7.9901e-03
13.000	23.750	7.9951e-03
13.000	24.000	7.9988e-03
13.250	17.000	5.3786e-04
13.250	17.250	7.3934e-04
13.250	17.500	9.2757e-04
13.250	17.750	1.1235e-03
13.250	18.000	1.3514e-03
13.250	18.250	1.6280e-03
13.250	18.500	1.9563e-03
13.250	18.750	2.3300e-03
13.250	19.000	2.7388e-03
13.250	19.250	3.1722e-03
13.250	19.500	3.5982e-03
13.250	19.750	3.9933e-03
13.250	20.000	4.3370e-03
13.250	20.250	4.6374e-03
13.250	20.500	4.9267e-03
13.250	20.750	5.2150e-03
13.250	21.000	5.5920e-03
13.250	21.250	6.1625e-03
13.250	21.500	6.9333e-03
13.250	21.750	7.0866e-03
13.250	22.000	7.3575e-03
13.250	22.250	7.5909e-03
13.250	22.500	7.8485e-03
13.250	22.750	7.9514e-03
13.250	23.000	7.9640e-03
13.250	23.250	7.9741e-03
13.250	23.500	7.9828e-03
13.250	23.750	7.9895e-03
13.250	24.000	7.9946e-03
13.500	17.000	3.5901e-04
13.500	17.250	4.7967e-04
13.500	17.500	5.8741e-04
13.500	17.750	6.8444e-04
13.500	18.000	8.0996e-04
13.500	18.250	9.8955e-04
13.500	18.500	1.2380e-03
13.500	18.750	1.5641e-03
13.500	19.000	1.9570e-03
13.500	19.250	2.3986e-03
13.500	19.500	2.8601e-03
13.500	19.750	3.3138e-03
13.500	20.000	3.7268e-03
13.500	20.250	4.0924e-03
13.500	20.500	4.4081e-03
13.500	20.750	4.7052e-03
13.500	21.000	4.9953e-03
13.500	21.250	5.3912e-03
13.500	21.500	5.9842e-03
13.500	21.750	6.8256e-03
13.500	22.000	7.1072e-03
13.500	22.250	7.3563e-03
13.500	22.500	7.5813e-03
13.500	22.750	7.8366e-03
13.500	23.000	7.9502e-03
13.500	23.250	7.9627e-03
13.500	23.500	7.9734e-03
13.500	23.750	7.9822e-03
13.500	24.000	7.9889e-03
13.750	17.000	2.5169e-04
13.750	17.250	3.2790e-04
13.750	17.500	3.9193e-04
13.750	17.750	4.4436e-04
13.750	18.000	5.1078e-04
13.750	18.250	6.1539e-04
13.750	18.500	7.6790e-04
13.750	18.750	9.8313e-04
13.750	19.000	1.2798e-03
13.750	19.250	1.6621e-03
13.750	19.500	2.1033e-03
13.750	19.750	2.5700e-03
13.750	20.000	3.0292e-03
13.750	20.250	3.4503e-03
13.750	20.500	3.8232e-03
13.750	20.750	4.1479e-03
13.750	21.000	4.4444e-03
13.750	21.250	4.7391e-03
13.750	21.500	5.1513e-03
13.750	21.750	5.7738e-03
13.750	22.000	6.7001e-03
13.750	22.250	7.1248e-03
13.750	22.500	7.3318e-03
13.750	22.750	7.5701e-03
13.750	23.000	7.8307e-03
13.750	23.250	7.9479e-03
13.750	23.500	7.9610e-03
13.750	23.750	7.9723e-03
13.750	24.000	7.9811e-03
14.000	17.000	1.8395e-04
14.000	17.250	2.3704e-04
14.000	17.500	2.7918e-04
14.000	17.750	3.0872e-04
14.000	18.000	3.4527e-04
14.000	18.250	4.0477e-04
14.000	18.500	4.9440e-04
14.000	18.750	6.2510e-04
14.000	19.000	8.1045e-04
14.000	19.250	1.0722e-03
14.000	19.500	1.4232e-03
14.000	19.750	1.8440e-03
14.000	20.000	2.2978e-03
14.000	20.250	2.7508e-03
14.000	20.500	3.1672e-03
14.000	20.750	3.5361e-03
14.000	21.000	3.8602e-03
14.000	21.250	4.1529e-03
14.000	21.500	4.4700e-03
14.000	21.750	4.8747e-03
14.000	22.000	5.5401e-03
14.000	22.250	6.5889e-03
14.000	22.500	7.1333e-03
14.000	22.750	7.3175e-03
14.000	23.000	7.5573e-03
14.000	23.250	7.8414e-03
14.000	23.500	7.9443e-03
14.000	23.750	7.9579e-03
14.000	24.000	7.9701e-03
