InwC 913.000A  relative to Inci 1215.00A scaled to 1215A.
Hden   Phi(H)  Eq_Width (A)
 7.000	17.000	7.9333e-03
 7.000	17.250	7.9368e-03
 7.000	17.500	7.9401e-03
 7.000	17.750	7.9435e-03
 7.000	18.000	7.9468e-03
 7.000	18.250	7.9497e-03
 7.000	18.500	7.9517e-03
 7.000	18.750	7.9527e-03
 7.000	19.000	7.9537e-03
 7.000	19.250	7.9543e-03
 7.000	19.500	7.9546e-03
 7.000	19.750	7.9547e-03
 7.000	20.000	7.9547e-03
 7.000	20.250	7.9548e-03
 7.000	20.500	7.9548e-03
 7.000	20.750	7.9549e-03
 7.000	21.000	7.9548e-03
 7.000	21.250	7.9548e-03
 7.000	21.500	7.9551e-03
 7.000	21.750	7.9549e-03
 7.000	22.000	7.9549e-03
 7.000	22.250	7.9549e-03
 7.000	22.500	7.9549e-03
 7.000	22.750	7.9551e-03
 7.000	23.000	7.9551e-03
 7.000	23.250	7.9549e-03
 7.000	23.500	7.9549e-03
 7.000	23.750	7.9549e-03
 7.000	24.000	7.9549e-03
 7.250	17.000	7.9202e-03
 7.250	17.250	7.9334e-03
 7.250	17.500	7.9368e-03
 7.250	17.750	7.9401e-03
 7.250	18.000	7.9435e-03
 7.250	18.250	7.9468e-03
 7.250	18.500	7.9497e-03
 7.250	18.750	7.9517e-03
 7.250	19.000	7.9527e-03
 7.250	19.250	7.9537e-03
 7.250	19.500	7.9543e-03
 7.250	19.750	7.9546e-03
 7.250	20.000	7.9547e-03
 7.250	20.250	7.9547e-03
 7.250	20.500	7.9548e-03
 7.250	20.750	7.9548e-03
 7.250	21.000	7.9548e-03
 7.250	21.250	7.9548e-03
 7.250	21.500	7.9549e-03
 7.250	21.750	7.9565e-03
 7.250	22.000	7.9549e-03
 7.250	22.250	7.9549e-03
 7.250	22.500	7.9549e-03
 7.250	22.750	7.9556e-03
 7.250	23.000	7.9556e-03
 7.250	23.250	7.9549e-03
 7.250	23.500	7.9549e-03
 7.250	23.750	7.9549e-03
 7.250	24.000	7.9549e-03
 7.500	17.000	7.5980e-03
 7.500	17.250	7.9208e-03
 7.500	17.500	7.9334e-03
 7.500	17.750	7.9368e-03
 7.500	18.000	7.9402e-03
 7.500	18.250	7.9435e-03
 7.500	18.500	7.9468e-03
 7.500	18.750	7.9497e-03
 7.500	19.000	7.9517e-03
 7.500	19.250	7.9527e-03
 7.500	19.500	7.9537e-03
 7.500	19.750	7.9543e-03
 7.500	20.000	7.9546e-03
 7.500	20.250	7.9547e-03
 7.500	20.500	7.9547e-03
 7.500	20.750	7.9547e-03
 7.500	21.000	7.9548e-03
 7.500	21.250	7.9548e-03
 7.500	21.500	7.9548e-03
 7.500	21.750	7.9549e-03
 7.500	22.000	7.9549e-03
 7.500	22.250	7.9549e-03
 7.500	22.500	7.9549e-03
 7.500	22.750	7.9549e-03
 7.500	23.000	7.9552e-03
 7.500	23.250	7.9556e-03
 7.500	23.500	7.9549e-03
 7.500	23.750	7.9558e-03
 7.500	24.000	7.9549e-03
 7.750	17.000	7.4577e-03
 7.750	17.250	7.5996e-03
 7.750	17.500	7.9213e-03
 7.750	17.750	7.9334e-03
 7.750	18.000	7.9368e-03
 7.750	18.250	7.9402e-03
 7.750	18.500	7.9435e-03
 7.750	18.750	7.9468e-03
 7.750	19.000	7.9497e-03
 7.750	19.250	7.9517e-03
 7.750	19.500	7.9527e-03
 7.750	19.750	7.9537e-03
 7.750	20.000	7.9543e-03
 7.750	20.250	7.9546e-03
 7.750	20.500	7.9547e-03
 7.750	20.750	7.9547e-03
 7.750	21.000	7.9547e-03
 7.750	21.250	7.9548e-03
 7.750	21.500	7.9548e-03
 7.750	21.750	7.9548e-03
 7.750	22.000	7.9548e-03
 7.750	22.250	7.9548e-03
 7.750	22.500	7.9548e-03
 7.750	22.750	7.9551e-03
 7.750	23.000	7.9551e-03
 7.750	23.250	7.9549e-03
 7.750	23.500	7.9556e-03
 7.750	23.750	7.9556e-03
 7.750	24.000	7.9549e-03
 8.000	17.000	6.4062e-03
 8.000	17.250	7.4486e-03
 8.000	17.500	7.5968e-03
 8.000	17.750	7.9201e-03
 8.000	18.000	7.9334e-03
 8.000	18.250	7.9368e-03
 8.000	18.500	7.9402e-03
 8.000	18.750	7.9435e-03
 8.000	19.000	7.9469e-03
 8.000	19.250	7.9497e-03
 8.000	19.500	7.9517e-03
 8.000	19.750	7.9527e-03
 8.000	20.000	7.9537e-03
 8.000	20.250	7.9543e-03
 8.000	20.500	7.9546e-03
 8.000	20.750	7.9547e-03
 8.000	21.000	7.9547e-03
 8.000	21.250	7.9547e-03
 8.000	21.500	7.9547e-03
 8.000	21.750	7.9547e-03
 8.000	22.000	7.9548e-03
 8.000	22.250	7.9548e-03
 8.000	22.500	7.9548e-03
 8.000	22.750	7.9550e-03
 8.000	23.000	7.9548e-03
 8.000	23.250	7.9553e-03
 8.000	23.500	7.9548e-03
 8.000	23.750	7.9548e-03
 8.000	24.000	7.9548e-03
 8.250	17.000	5.2105e-03
 8.250	17.250	6.3904e-03
 8.250	17.500	7.4477e-03
 8.250	17.750	7.5980e-03
 8.250	18.000	7.9205e-03
 8.250	18.250	7.9334e-03
 8.250	18.500	7.9369e-03
 8.250	18.750	7.9402e-03
 8.250	19.000	7.9436e-03
 8.250	19.250	7.9469e-03
 8.250	19.500	7.9497e-03
 8.250	19.750	7.9517e-03
 8.250	20.000	7.9527e-03
 8.250	20.250	7.9537e-03
 8.250	20.500	7.9543e-03
 8.250	20.750	7.9546e-03
 8.250	21.000	7.9547e-03
 8.250	21.250	7.9547e-03
 8.250	21.500	7.9547e-03
 8.250	21.750	7.9547e-03
 8.250	22.000	7.9547e-03
 8.250	22.250	7.9547e-03
 8.250	22.500	7.9548e-03
 8.250	22.750	7.9550e-03
 8.250	23.000	7.9548e-03
 8.250	23.250	7.9569e-03
 8.250	23.500	7.9548e-03
 8.250	23.750	7.9548e-03
 8.250	24.000	7.9554e-03
 8.500	17.000	4.3854e-03
 8.500	17.250	5.1816e-03
 8.500	17.500	6.3776e-03
 8.500	17.750	7.4465e-03
 8.500	18.000	7.5989e-03
 8.500	18.250	7.9208e-03
 8.500	18.500	7.9334e-03
 8.500	18.750	7.9369e-03
 8.500	19.000	7.9402e-03
 8.500	19.250	7.9436e-03
 8.500	19.500	7.9469e-03
 8.500	19.750	7.9497e-03
 8.500	20.000	7.9517e-03
 8.500	20.250	7.9527e-03
 8.500	20.500	7.9537e-03
 8.500	20.750	7.9543e-03
 8.500	21.000	7.9546e-03
 8.500	21.250	7.9547e-03
 8.500	21.500	7.9547e-03
 8.500	21.750	7.9547e-03
 8.500	22.000	7.9547e-03
 8.500	22.250	7.9547e-03
 8.500	22.500	7.9547e-03
 8.500	22.750	7.9548e-03
 8.500	23.000	7.9548e-03
 8.500	23.250	7.9550e-03
 8.500	23.500	7.9548e-03
 8.500	23.750	7.9548e-03
 8.500	24.000	7.9548e-03
 8.750	17.000	3.8857e-03
 8.750	17.250	4.3554e-03
 8.750	17.500	5.1622e-03
 8.750	17.750	6.3807e-03
 8.750	18.000	7.4460e-03
 8.750	18.250	7.5995e-03
 8.750	18.500	7.9209e-03
 8.750	18.750	7.9334e-03
 8.750	19.000	7.9369e-03
 8.750	19.250	7.9403e-03
 8.750	19.500	7.9437e-03
 8.750	19.750	7.9470e-03
 8.750	20.000	7.9497e-03
 8.750	20.250	7.9517e-03
 8.750	20.500	7.9527e-03
 8.750	20.750	7.9537e-03
 8.750	21.000	7.9543e-03
 8.750	21.250	7.9546e-03
 8.750	21.500	7.9547e-03
 8.750	21.750	7.9547e-03
 8.750	22.000	7.9547e-03
 8.750	22.250	7.9547e-03
 8.750	22.500	7.9547e-03
 8.750	22.750	7.9547e-03
 8.750	23.000	7.9556e-03
 8.750	23.250	7.9548e-03
 8.750	23.500	7.9550e-03
 8.750	23.750	7.9548e-03
 8.750	24.000	7.9547e-03
 9.000	17.000	3.5851e-03
 9.000	17.250	3.8543e-03
 9.000	17.500	4.3341e-03
 9.000	17.750	5.1557e-03
 9.000	18.000	6.3965e-03
 9.000	18.250	7.4464e-03
 9.000	18.500	7.5997e-03
 9.000	18.750	7.9207e-03
 9.000	19.000	7.9333e-03
 9.000	19.250	7.9369e-03
 9.000	19.500	7.9403e-03
 9.000	19.750	7.9437e-03
 9.000	20.000	7.9470e-03
 9.000	20.250	7.9497e-03
 9.000	20.500	7.9517e-03
 9.000	20.750	7.9527e-03
 9.000	21.000	7.9537e-03
 9.000	21.250	7.9543e-03
 9.000	21.500	7.9546e-03
 9.000	21.750	7.9547e-03
 9.000	22.000	7.9547e-03
 9.000	22.250	7.9547e-03
 9.000	22.500	7.9547e-03
 9.000	22.750	7.9547e-03
 9.000	23.000	7.9547e-03
 9.000	23.250	7.9547e-03
 9.000	23.500	7.9547e-03
 9.000	23.750	7.9547e-03
 9.000	24.000	7.9548e-03
 9.250	17.000	3.3909e-03
 9.250	17.250	3.5531e-03
 9.250	17.500	3.8356e-03
 9.250	17.750	4.3460e-03
 9.250	18.000	5.2170e-03
 9.250	18.250	6.4819e-03
 9.250	18.500	7.4443e-03
 9.250	18.750	7.5990e-03
 9.250	19.000	7.9202e-03
 9.250	19.250	7.9333e-03
 9.250	19.500	7.9369e-03
 9.250	19.750	7.9403e-03
 9.250	20.000	7.9438e-03
 9.250	20.250	7.9470e-03
 9.250	20.500	7.9498e-03
 9.250	20.750	7.9517e-03
 9.250	21.000	7.9527e-03
 9.250	21.250	7.9537e-03
 9.250	21.500	7.9539e-03
 9.250	21.750	7.9540e-03
 9.250	22.000	7.9540e-03
 9.250	22.250	7.9542e-03
 9.250	22.500	7.9544e-03
 9.250	22.750	7.9544e-03
 9.250	23.000	7.9545e-03
 9.250	23.250	7.9546e-03
 9.250	23.500	7.9546e-03
 9.250	23.750	7.9546e-03
 9.250	24.000	7.9547e-03
 9.500	17.000	3.2528e-03
 9.500	17.250	3.3602e-03
 9.500	17.500	3.5452e-03
 9.500	17.750	3.8723e-03
 9.500	18.000	4.4305e-03
 9.500	18.250	5.3779e-03
 9.500	18.500	6.7231e-03
 9.500	18.750	7.4088e-03
 9.500	19.000	7.5974e-03
 9.500	19.250	7.9188e-03
 9.500	19.500	7.9332e-03
 9.500	19.750	7.9369e-03
 9.500	20.000	7.9404e-03
 9.500	20.250	7.9438e-03
 9.500	20.500	7.9471e-03
 9.500	20.750	7.9494e-03
 9.500	21.000	7.9513e-03
 9.500	21.250	7.9522e-03
 9.500	21.500	7.9531e-03
 9.500	21.750	7.9536e-03
 9.500	22.000	7.9537e-03
 9.500	22.250	7.9539e-03
 9.500	22.500	7.9539e-03
 9.500	22.750	7.9540e-03
 9.500	23.000	7.9540e-03
 9.500	23.250	7.9540e-03
 9.500	23.500	7.9540e-03
 9.500	23.750	7.9540e-03
 9.500	24.000	7.9540e-03
 9.750	17.000	3.1607e-03
 9.750	17.250	3.2211e-03
 9.750	17.500	3.3514e-03
 9.750	17.750	3.5810e-03
 9.750	18.000	3.9779e-03
 9.750	18.250	4.6658e-03
 9.750	18.500	5.7562e-03
 9.750	18.750	7.0798e-03
 9.750	19.000	7.4071e-03
 9.750	19.250	7.5946e-03
 9.750	19.500	7.9164e-03
 9.750	19.750	7.9330e-03
 9.750	20.000	7.9368e-03
 9.750	20.250	7.9404e-03
 9.750	20.500	7.9438e-03
 9.750	20.750	7.9470e-03
 9.750	21.000	7.9495e-03
 9.750	21.250	7.9513e-03
 9.750	21.500	7.9523e-03
 9.750	21.750	7.9532e-03
 9.750	22.000	7.9536e-03
 9.750	22.250	7.9538e-03
 9.750	22.500	7.9539e-03
 9.750	22.750	7.9540e-03
 9.750	23.000	7.9540e-03
 9.750	23.250	7.9539e-03
 9.750	23.500	7.9540e-03
 9.750	23.750	7.9540e-03
 9.750	24.000	7.9540e-03
10.000	17.000	3.1212e-03
10.000	17.250	3.1174e-03
10.000	17.500	3.1962e-03
10.000	17.750	3.3841e-03
10.000	18.000	3.7258e-03
10.000	18.250	4.2585e-03
10.000	18.500	5.0940e-03
10.000	18.750	6.2807e-03
10.000	19.000	7.2788e-03
10.000	19.250	7.4057e-03
10.000	19.500	7.5900e-03
10.000	19.750	7.9119e-03
10.000	20.000	7.9327e-03
10.000	20.250	7.9367e-03
10.000	20.500	7.9404e-03
10.000	20.750	7.9439e-03
10.000	21.000	7.9471e-03
10.000	21.250	7.9496e-03
10.000	21.500	7.9513e-03
10.000	21.750	7.9523e-03
10.000	22.000	7.9532e-03
10.000	22.250	7.9537e-03
10.000	22.500	7.9538e-03
10.000	22.750	7.9539e-03
10.000	23.000	7.9540e-03
10.000	23.250	7.9540e-03
10.000	23.500	7.9540e-03
10.000	23.750	7.9540e-03
10.000	24.000	7.9540e-03
10.250	17.000	3.1411e-03
10.250	17.250	3.0716e-03
10.250	17.500	3.0919e-03
10.250	17.750	3.2461e-03
10.250	18.000	3.5672e-03
10.250	18.250	4.0299e-03
10.250	18.500	4.6951e-03
10.250	18.750	5.6472e-03
10.250	19.000	6.8047e-03
10.250	19.250	7.3053e-03
10.250	19.500	7.4047e-03
10.250	19.750	7.5849e-03
10.250	20.000	7.9052e-03
10.250	20.250	7.9323e-03
10.250	20.500	7.9366e-03
10.250	20.750	7.9404e-03
10.250	21.000	7.9439e-03
10.250	21.250	7.9472e-03
10.250	21.500	7.9497e-03
10.250	21.750	7.9514e-03
10.250	22.000	7.9523e-03
10.250	22.250	7.9533e-03
10.250	22.500	7.9537e-03
10.250	22.750	7.9538e-03
10.250	23.000	7.9539e-03
10.250	23.250	7.9540e-03
10.250	23.500	7.9540e-03
10.250	23.750	7.9540e-03
10.250	24.000	7.9540e-03
10.500	17.000	3.2020e-03
10.500	17.250	3.0829e-03
10.500	17.500	3.0464e-03
10.500	17.750	3.1610e-03
10.500	18.000	3.4571e-03
10.500	18.250	3.8904e-03
10.500	18.500	4.4285e-03
10.500	18.750	5.1253e-03
10.500	19.000	6.0623e-03
10.500	19.250	7.0915e-03
10.500	19.500	7.3044e-03
10.500	19.750	7.4041e-03
10.500	20.000	7.5804e-03
10.500	20.250	7.8970e-03
10.500	20.500	7.9318e-03
10.500	20.750	7.9364e-03
10.500	21.000	7.9403e-03
10.500	21.250	7.9439e-03
10.500	21.500	7.9472e-03
10.500	21.750	7.9498e-03
10.500	22.000	7.9516e-03
10.500	22.250	7.9523e-03
10.500	22.500	7.9533e-03
10.500	22.750	7.9538e-03
10.500	23.000	7.9539e-03
10.500	23.250	7.9539e-03
10.500	23.500	7.9540e-03
10.500	23.750	7.9540e-03
10.500	24.000	7.9540e-03
10.750	17.000	3.2779e-03
10.750	17.250	3.1352e-03
10.750	17.500	3.0588e-03
10.750	17.750	3.1332e-03
10.750	18.000	3.3732e-03
10.750	18.250	3.7275e-03
10.750	18.500	4.1453e-03
10.750	18.750	4.6503e-03
10.750	19.000	5.3650e-03
10.750	19.250	6.3450e-03
10.750	19.500	7.1782e-03
10.750	19.750	7.3056e-03
10.750	20.000	7.4043e-03
10.750	20.250	7.5778e-03
10.750	20.500	7.8908e-03
10.750	20.750	7.9313e-03
10.750	21.000	7.9361e-03
10.750	21.250	7.9403e-03
10.750	21.500	7.9439e-03
10.750	21.750	7.9472e-03
10.750	22.000	7.9498e-03
10.750	22.250	7.9517e-03
10.750	22.500	7.9525e-03
10.750	22.750	7.9533e-03
10.750	23.000	7.9539e-03
10.750	23.250	7.9540e-03
10.750	23.500	7.9540e-03
10.750	23.750	7.9539e-03
10.750	24.000	7.9540e-03
11.000	17.000	3.3408e-03
11.000	17.250	3.2007e-03
11.000	17.500	3.1073e-03
11.000	17.750	3.1437e-03
11.000	18.000	3.3112e-03
11.000	18.250	3.5501e-03
11.000	18.500	3.8533e-03
11.000	18.750	4.2423e-03
11.000	19.000	4.7837e-03
11.000	19.250	5.5600e-03
11.000	19.500	6.5844e-03
11.000	19.750	7.1803e-03
11.000	20.000	7.3069e-03
11.000	20.250	7.4053e-03
11.000	20.500	7.5789e-03
11.000	20.750	7.8896e-03
11.000	21.000	7.9306e-03
11.000	21.250	7.9359e-03
11.000	21.500	7.9402e-03
11.000	21.750	7.9439e-03
11.000	22.000	7.9472e-03
11.000	22.250	7.9498e-03
11.000	22.500	7.9517e-03
11.000	22.750	7.9527e-03
11.000	23.000	7.9534e-03
11.000	23.250	7.9539e-03
11.000	23.500	7.9541e-03
11.000	23.750	7.9541e-03
11.000	24.000	7.9540e-03
11.250	17.000	3.3579e-03
11.250	17.250	3.2481e-03
11.250	17.500	3.1549e-03
11.250	17.750	3.1616e-03
11.250	18.000	3.2583e-03
11.250	18.250	3.3869e-03
11.250	18.500	3.5812e-03
11.250	18.750	3.8894e-03
11.250	19.000	4.3040e-03
11.250	19.250	4.8927e-03
11.250	19.500	5.7289e-03
11.250	19.750	6.7522e-03
11.250	20.000	7.1792e-03
11.250	20.250	7.3080e-03
11.250	20.500	7.4089e-03
11.250	20.750	7.5867e-03
11.250	21.000	7.8996e-03
11.250	21.250	7.9303e-03
11.250	21.500	7.9356e-03
11.250	21.750	7.9401e-03
11.250	22.000	7.9439e-03
11.250	22.250	7.9472e-03
11.250	22.500	7.9498e-03
11.250	22.750	7.9517e-03
11.250	23.000	7.9527e-03
11.250	23.250	7.9536e-03
11.250	23.500	7.9539e-03
11.250	23.750	7.9541e-03
11.250	24.000	7.9542e-03
11.500	17.000	3.2897e-03
11.500	17.250	3.2398e-03
11.500	17.500	3.1645e-03
11.500	17.750	3.1514e-03
11.500	18.000	3.1942e-03
11.500	18.250	3.2566e-03
11.500	18.500	3.3713e-03
11.500	18.750	3.5857e-03
11.500	19.000	3.9080e-03
11.500	19.250	4.3509e-03
11.500	19.500	4.9825e-03
11.500	19.750	5.8611e-03
11.500	20.000	6.8738e-03
11.500	20.250	7.1946e-03
11.500	20.500	7.3105e-03
11.500	20.750	7.4154e-03
11.500	21.000	7.6078e-03
11.500	21.250	7.9152e-03
11.500	21.500	7.9298e-03
11.500	21.750	7.9353e-03
11.500	22.000	7.9399e-03
11.500	22.250	7.9438e-03
11.500	22.500	7.9471e-03
11.500	22.750	7.9498e-03
11.500	23.000	7.9517e-03
11.500	23.250	7.9527e-03
11.500	23.500	7.9537e-03
11.500	23.750	7.9540e-03
11.500	24.000	7.9542e-03
11.750	17.000	3.0742e-03
11.750	17.250	3.1247e-03
11.750	17.500	3.0968e-03
11.750	17.750	3.0892e-03
11.750	18.000	3.1114e-03
11.750	18.250	3.1505e-03
11.750	18.500	3.2145e-03
11.750	18.750	3.3405e-03
11.750	19.000	3.5698e-03
11.750	19.250	3.9071e-03
11.750	19.500	4.3785e-03
11.750	19.750	5.0458e-03
11.750	20.000	5.9628e-03
11.750	20.250	6.9491e-03
11.750	20.500	7.2320e-03
11.750	20.750	7.3154e-03
11.750	21.000	7.4323e-03
11.750	21.250	7.6589e-03
11.750	21.500	7.9196e-03
11.750	21.750	7.9293e-03
11.750	22.000	7.9350e-03
11.750	22.250	7.9398e-03
11.750	22.500	7.9437e-03
11.750	22.750	7.9471e-03
11.750	23.000	7.9497e-03
11.750	23.250	7.9517e-03
11.750	23.500	7.9527e-03
11.750	23.750	7.9537e-03
11.750	24.000	7.9542e-03
12.000	17.000	2.6576e-03
12.000	17.250	2.8476e-03
12.000	17.500	2.9151e-03
12.000	17.750	2.9606e-03
12.000	18.000	3.0035e-03
12.000	18.250	3.0369e-03
12.000	18.500	3.0728e-03
12.000	18.750	3.1432e-03
12.000	19.000	3.2872e-03
12.000	19.250	3.5301e-03
12.000	19.500	3.8865e-03
12.000	19.750	4.3826e-03
12.000	20.000	5.0822e-03
12.000	20.250	6.0347e-03
12.000	20.500	6.9969e-03
12.000	20.750	7.2317e-03
12.000	21.000	7.3274e-03
12.000	21.250	7.4779e-03
12.000	21.500	7.7493e-03
12.000	21.750	7.9202e-03
12.000	22.000	7.9291e-03
12.000	22.250	7.9349e-03
12.000	22.500	7.9396e-03
12.000	22.750	7.9436e-03
12.000	23.000	7.9470e-03
12.000	23.250	7.9497e-03
12.000	23.500	7.9517e-03
12.000	23.750	7.9527e-03
12.000	24.000	7.9537e-03
12.250	17.000	2.0672e-03
12.250	17.250	2.3955e-03
12.250	17.500	2.6054e-03
12.250	17.750	2.7467e-03
12.250	18.000	2.8259e-03
12.250	18.250	2.8651e-03
12.250	18.500	2.8923e-03
12.250	18.750	2.9416e-03
12.250	19.000	3.0375e-03
12.250	19.250	3.2059e-03
12.250	19.500	3.4752e-03
12.250	19.750	3.8459e-03
12.250	20.000	4.3663e-03
12.250	20.250	5.0941e-03
12.250	20.500	6.0817e-03
12.250	20.750	7.0092e-03
12.250	21.000	7.2370e-03
12.250	21.250	7.3551e-03
12.250	21.500	7.5462e-03
12.250	21.750	7.8566e-03
12.250	22.000	7.9199e-03
12.250	22.250	7.9281e-03
12.250	22.500	7.9343e-03
12.250	22.750	7.9394e-03
12.250	23.000	7.9435e-03
12.250	23.250	7.9469e-03
12.250	23.500	7.9496e-03
12.250	23.750	7.9517e-03
12.250	24.000	7.9527e-03
12.500	17.000	1.4823e-03
12.500	17.250	1.8910e-03
12.500	17.500	2.2086e-03
12.500	17.750	2.4091e-03
12.500	18.000	2.5248e-03
12.500	18.250	2.5869e-03
12.500	18.500	2.6341e-03
12.500	18.750	2.6951e-03
12.500	19.000	2.7844e-03
12.500	19.250	2.9178e-03
12.500	19.500	3.1158e-03
12.500	19.750	3.4068e-03
12.500	20.000	3.7920e-03
12.500	20.250	4.3292e-03
12.500	20.500	5.0807e-03
12.500	20.750	6.1161e-03
12.500	21.000	7.0323e-03
12.500	21.250	7.2551e-03
12.500	21.500	7.3990e-03
12.500	21.750	7.6299e-03
12.500	22.000	7.9067e-03
12.500	22.250	7.9193e-03
12.500	22.500	7.9273e-03
12.500	22.750	7.9339e-03
12.500	23.000	7.9391e-03
12.500	23.250	7.9434e-03
12.500	23.500	7.9468e-03
12.500	23.750	7.9496e-03
12.500	24.000	7.9517e-03
12.750	17.000	1.0289e-03
12.750	17.250	1.4093e-03
12.750	17.500	1.7155e-03
12.750	17.750	1.9277e-03
12.750	18.000	2.0779e-03
12.750	18.250	2.1885e-03
12.750	18.500	2.2824e-03
12.750	18.750	2.3821e-03
12.750	19.000	2.4986e-03
12.750	19.250	2.6349e-03
12.750	19.500	2.8017e-03
12.750	19.750	3.0198e-03
12.750	20.000	3.3247e-03
12.750	20.250	3.7232e-03
12.750	20.500	4.2725e-03
12.750	20.750	5.0566e-03
12.750	21.000	6.1499e-03
12.750	21.250	7.0416e-03
12.750	21.500	7.2802e-03
12.750	21.750	7.4608e-03
12.750	22.000	7.7196e-03
12.750	22.250	7.9080e-03
12.750	22.500	7.9187e-03
12.750	22.750	7.9269e-03
12.750	23.000	7.9335e-03
12.750	23.250	7.9388e-03
12.750	23.500	7.9432e-03
12.750	23.750	7.9467e-03
12.750	24.000	7.9495e-03
13.000	17.000	6.4626e-04
13.000	17.250	9.0288e-04
13.000	17.500	1.1499e-03
13.000	17.750	1.3589e-03
13.000	18.000	1.5341e-03
13.000	18.250	1.6945e-03
13.000	18.500	1.8456e-03
13.000	18.750	1.9956e-03
13.000	19.000	2.1547e-03
13.000	19.250	2.3226e-03
13.000	19.500	2.4939e-03
13.000	19.750	2.6831e-03
13.000	20.000	2.9175e-03
13.000	20.250	3.2311e-03
13.000	20.500	3.6378e-03
13.000	20.750	4.2037e-03
13.000	21.000	5.0196e-03
13.000	21.250	6.1862e-03
13.000	21.500	7.0458e-03
13.000	21.750	7.3204e-03
13.000	22.000	7.5154e-03
13.000	22.250	7.7870e-03
13.000	22.500	7.9081e-03
13.000	22.750	7.9183e-03
13.000	23.000	7.9265e-03
13.000	23.250	7.9331e-03
13.000	23.500	7.9385e-03
13.000	23.750	7.9429e-03
13.000	24.000	7.9465e-03
13.250	17.000	4.1547e-04
13.250	17.250	5.7160e-04
13.250	17.500	7.1185e-04
13.250	17.750	8.5160e-04
13.250	18.000	1.0038e-03
13.250	18.250	1.1738e-03
13.250	18.500	1.3592e-03
13.250	18.750	1.5542e-03
13.250	19.000	1.7551e-03
13.250	19.250	1.9607e-03
13.250	19.500	2.1616e-03
13.250	19.750	2.3602e-03
13.250	20.000	2.5644e-03
13.250	20.250	2.8032e-03
13.250	20.500	3.1193e-03
13.250	20.750	3.5329e-03
13.250	21.000	4.1172e-03
13.250	21.250	4.9778e-03
13.250	21.500	6.1810e-03
13.250	21.750	7.0884e-03
13.250	22.000	7.3360e-03
13.250	22.250	7.5561e-03
13.250	22.500	7.8086e-03
13.250	22.750	7.9078e-03
13.250	23.000	7.9178e-03
13.250	23.250	7.9258e-03
13.250	23.500	7.9326e-03
13.250	23.750	7.9382e-03
13.250	24.000	7.9426e-03
13.500	17.000	2.7720e-04
13.500	17.250	3.7317e-04
13.500	17.500	4.5597e-04
13.500	17.750	5.2700e-04
13.500	18.000	6.1630e-04
13.500	18.250	7.4033e-04
13.500	18.500	9.0354e-04
13.500	18.750	1.1025e-03
13.500	19.000	1.3235e-03
13.500	19.250	1.5545e-03
13.500	19.500	1.7826e-03
13.500	19.750	2.0021e-03
13.500	20.000	2.2101e-03
13.500	20.250	2.4243e-03
13.500	20.500	2.6689e-03
13.500	20.750	2.9863e-03
13.500	21.000	3.3986e-03
13.500	21.250	4.0004e-03
13.500	21.500	4.8670e-03
13.500	21.750	6.1499e-03
13.500	22.000	7.1090e-03
13.500	22.250	7.3352e-03
13.500	22.500	7.5469e-03
13.500	22.750	7.7971e-03
13.500	23.000	7.9069e-03
13.500	23.250	7.9170e-03
13.500	23.500	7.9253e-03
13.500	23.750	7.9323e-03
13.500	24.000	7.9378e-03
13.750	17.000	1.9333e-04
13.750	17.250	2.5506e-04
13.750	17.500	3.0568e-04
13.750	17.750	3.4461e-04
13.750	18.000	3.9292e-04
13.750	18.250	4.6856e-04
13.750	18.500	5.7646e-04
13.750	18.750	7.2288e-04
13.750	19.000	9.1300e-04
13.750	19.250	1.1387e-03
13.750	19.500	1.3783e-03
13.750	19.750	1.6153e-03
13.750	20.000	1.8404e-03
13.750	20.250	2.0528e-03
13.750	20.500	2.2692e-03
13.750	20.750	2.5168e-03
13.750	21.000	2.8309e-03
13.750	21.250	3.2447e-03
13.750	21.500	3.8463e-03
13.750	21.750	4.7543e-03
13.750	22.000	6.1215e-03
13.750	22.250	7.1269e-03
13.750	22.500	7.3111e-03
13.750	22.750	7.5365e-03
13.750	23.000	7.7918e-03
13.750	23.250	7.9053e-03
13.750	23.500	7.9158e-03
13.750	23.750	7.9246e-03
13.750	24.000	7.9316e-03
14.000	17.000	1.3992e-04
14.000	17.250	1.8362e-04
14.000	17.500	2.1786e-04
14.000	17.750	2.4016e-04
14.000	18.000	2.6700e-04
14.000	18.250	3.1111e-04
14.000	18.500	3.7695e-04
14.000	18.750	4.7103e-04
14.000	19.000	5.9967e-04
14.000	19.250	7.7193e-04
14.000	19.500	9.8617e-04
14.000	19.750	1.2209e-03
14.000	20.000	1.4556e-03
14.000	20.250	1.6798e-03
14.000	20.500	1.8905e-03
14.000	20.750	2.1046e-03
14.000	21.000	2.3507e-03
14.000	21.250	2.6619e-03
14.000	21.500	3.0837e-03
14.000	21.750	3.6892e-03
14.000	22.000	4.6447e-03
14.000	22.250	6.1438e-03
14.000	22.500	7.1368e-03
14.000	22.750	7.2991e-03
14.000	23.000	7.5256e-03
14.000	23.250	7.8038e-03
14.000	23.500	7.9030e-03
14.000	23.750	7.9137e-03
14.000	24.000	7.9231e-03
