InwC 1035.92A  relative to Inci 1215.00A scaled to 1215A.
Hden   Phi(H)  Eq_Width (A)
 7.000	17.000	7.9808e-03
 7.000	17.250	7.9843e-03
 7.000	17.500	7.9876e-03
 7.000	17.750	7.9910e-03
 7.000	18.000	7.9944e-03
 7.000	18.250	7.9973e-03
 7.000	18.500	7.9993e-03
 7.000	18.750	8.0002e-03
 7.000	19.000	8.0012e-03
 7.000	19.250	8.0019e-03
 7.000	19.500	8.0021e-03
 7.000	19.750	8.0023e-03
 7.000	20.000	8.0023e-03
 7.000	20.250	8.0024e-03
 7.000	20.500	8.0025e-03
 7.000	20.750	8.0025e-03
 7.000	21.000	8.0025e-03
 7.000	21.250	8.0025e-03
 7.000	21.500	8.0026e-03
 7.000	21.750	8.0025e-03
 7.000	22.000	8.0025e-03
 7.000	22.250	8.0025e-03
 7.000	22.500	8.0025e-03
 7.000	22.750	8.0027e-03
 7.000	23.000	8.0027e-03
 7.000	23.250	8.0025e-03
 7.000	23.500	8.0025e-03
 7.000	23.750	8.0025e-03
 7.000	24.000	8.0025e-03
 7.250	17.000	7.9675e-03
 7.250	17.250	7.9808e-03
 7.250	17.500	7.9843e-03
 7.250	17.750	7.9876e-03
 7.250	18.000	7.9910e-03
 7.250	18.250	7.9944e-03
 7.250	18.500	7.9973e-03
 7.250	18.750	7.9993e-03
 7.250	19.000	8.0002e-03
 7.250	19.250	8.0012e-03
 7.250	19.500	8.0019e-03
 7.250	19.750	8.0021e-03
 7.250	20.000	8.0022e-03
 7.250	20.250	8.0023e-03
 7.250	20.500	8.0024e-03
 7.250	20.750	8.0024e-03
 7.250	21.000	8.0025e-03
 7.250	21.250	8.0025e-03
 7.250	21.500	8.0025e-03
 7.250	21.750	8.0040e-03
 7.250	22.000	8.0025e-03
 7.250	22.250	8.0025e-03
 7.250	22.500	8.0025e-03
 7.250	22.750	8.0032e-03
 7.250	23.000	8.0032e-03
 7.250	23.250	8.0025e-03
 7.250	23.500	8.0025e-03
 7.250	23.750	8.0025e-03
 7.250	24.000	8.0025e-03
 7.500	17.000	7.6407e-03
 7.500	17.250	7.9681e-03
 7.500	17.500	7.9808e-03
 7.500	17.750	7.9843e-03
 7.500	18.000	7.9877e-03
 7.500	18.250	7.9910e-03
 7.500	18.500	7.9944e-03
 7.500	18.750	7.9973e-03
 7.500	19.000	7.9993e-03
 7.500	19.250	8.0002e-03
 7.500	19.500	8.0012e-03
 7.500	19.750	8.0019e-03
 7.500	20.000	8.0021e-03
 7.500	20.250	8.0022e-03
 7.500	20.500	8.0023e-03
 7.500	20.750	8.0024e-03
 7.500	21.000	8.0024e-03
 7.500	21.250	8.0024e-03
 7.500	21.500	8.0024e-03
 7.500	21.750	8.0025e-03
 7.500	22.000	8.0025e-03
 7.500	22.250	8.0025e-03
 7.500	22.500	8.0025e-03
 7.500	22.750	8.0025e-03
 7.500	23.000	8.0029e-03
 7.500	23.250	8.0032e-03
 7.500	23.500	8.0025e-03
 7.500	23.750	8.0034e-03
 7.500	24.000	8.0025e-03
 7.750	17.000	7.4960e-03
 7.750	17.250	7.6422e-03
 7.750	17.500	7.9686e-03
 7.750	17.750	7.9808e-03
 7.750	18.000	7.9843e-03
 7.750	18.250	7.9877e-03
 7.750	18.500	7.9910e-03
 7.750	18.750	7.9944e-03
 7.750	19.000	7.9973e-03
 7.750	19.250	7.9993e-03
 7.750	19.500	8.0002e-03
 7.750	19.750	8.0012e-03
 7.750	20.000	8.0019e-03
 7.750	20.250	8.0021e-03
 7.750	20.500	8.0022e-03
 7.750	20.750	8.0023e-03
 7.750	21.000	8.0023e-03
 7.750	21.250	8.0024e-03
 7.750	21.500	8.0024e-03
 7.750	21.750	8.0024e-03
 7.750	22.000	8.0024e-03
 7.750	22.250	8.0024e-03
 7.750	22.500	8.0024e-03
 7.750	22.750	8.0026e-03
 7.750	23.000	8.0027e-03
 7.750	23.250	8.0025e-03
 7.750	23.500	8.0032e-03
 7.750	23.750	8.0032e-03
 7.750	24.000	8.0025e-03
 8.000	17.000	6.4519e-03
 8.000	17.250	7.4871e-03
 8.000	17.500	7.6394e-03
 8.000	17.750	7.9674e-03
 8.000	18.000	7.9808e-03
 8.000	18.250	7.9843e-03
 8.000	18.500	7.9877e-03
 8.000	18.750	7.9911e-03
 8.000	19.000	7.9944e-03
 8.000	19.250	7.9973e-03
 8.000	19.500	7.9993e-03
 8.000	19.750	8.0002e-03
 8.000	20.000	8.0012e-03
 8.000	20.250	8.0019e-03
 8.000	20.500	8.0021e-03
 8.000	20.750	8.0022e-03
 8.000	21.000	8.0023e-03
 8.000	21.250	8.0023e-03
 8.000	21.500	8.0024e-03
 8.000	21.750	8.0024e-03
 8.000	22.000	8.0024e-03
 8.000	22.250	8.0024e-03
 8.000	22.500	8.0024e-03
 8.000	22.750	8.0026e-03
 8.000	23.000	8.0024e-03
 8.000	23.250	8.0029e-03
 8.000	23.500	8.0024e-03
 8.000	23.750	8.0024e-03
 8.000	24.000	8.0024e-03
 8.250	17.000	5.2714e-03
 8.250	17.250	6.4358e-03
 8.250	17.500	7.4861e-03
 8.250	17.750	7.6406e-03
 8.250	18.000	7.9678e-03
 8.250	18.250	7.9808e-03
 8.250	18.500	7.9843e-03
 8.250	18.750	7.9877e-03
 8.250	19.000	7.9911e-03
 8.250	19.250	7.9944e-03
 8.250	19.500	7.9973e-03
 8.250	19.750	7.9993e-03
 8.250	20.000	8.0002e-03
 8.250	20.250	8.0012e-03
 8.250	20.500	8.0019e-03
 8.250	20.750	8.0021e-03
 8.250	21.000	8.0022e-03
 8.250	21.250	8.0023e-03
 8.250	21.500	8.0023e-03
 8.250	21.750	8.0023e-03
 8.250	22.000	8.0024e-03
 8.250	22.250	8.0024e-03
 8.250	22.500	8.0024e-03
 8.250	22.750	8.0026e-03
 8.250	23.000	8.0024e-03
 8.250	23.250	8.0044e-03
 8.250	23.500	8.0024e-03
 8.250	23.750	8.0024e-03
 8.250	24.000	8.0030e-03
 8.500	17.000	4.4758e-03
 8.500	17.250	5.2415e-03
 8.500	17.500	6.4226e-03
 8.500	17.750	7.4849e-03
 8.500	18.000	7.6416e-03
 8.500	18.250	7.9681e-03
 8.500	18.500	7.9808e-03
 8.500	18.750	7.9843e-03
 8.500	19.000	7.9877e-03
 8.500	19.250	7.9911e-03
 8.500	19.500	7.9945e-03
 8.500	19.750	7.9973e-03
 8.500	20.000	7.9993e-03
 8.500	20.250	8.0002e-03
 8.500	20.500	8.0012e-03
 8.500	20.750	8.0019e-03
 8.500	21.000	8.0021e-03
 8.500	21.250	8.0022e-03
 8.500	21.500	8.0023e-03
 8.500	21.750	8.0023e-03
 8.500	22.000	8.0024e-03
 8.500	22.250	8.0024e-03
 8.500	22.500	8.0024e-03
 8.500	22.750	8.0024e-03
 8.500	23.000	8.0024e-03
 8.500	23.250	8.0026e-03
 8.500	23.500	8.0024e-03
 8.500	23.750	8.0024e-03
 8.500	24.000	8.0024e-03
 8.750	17.000	4.0293e-03
 8.750	17.250	4.4440e-03
 8.750	17.500	5.2212e-03
 8.750	17.750	6.4253e-03
 8.750	18.000	7.4841e-03
 8.750	18.250	7.6421e-03
 8.750	18.500	7.9682e-03
 8.750	18.750	7.9808e-03
 8.750	19.000	7.9844e-03
 8.750	19.250	7.9878e-03
 8.750	19.500	7.9912e-03
 8.750	19.750	7.9945e-03
 8.750	20.000	7.9973e-03
 8.750	20.250	7.9993e-03
 8.750	20.500	8.0002e-03
 8.750	20.750	8.0012e-03
 8.750	21.000	8.0019e-03
 8.750	21.250	8.0021e-03
 8.750	21.500	8.0022e-03
 8.750	21.750	8.0023e-03
 8.750	22.000	8.0023e-03
 8.750	22.250	8.0023e-03
 8.750	22.500	8.0024e-03
 8.750	22.750	8.0024e-03
 8.750	23.000	8.0031e-03
 8.750	23.250	8.0024e-03
 8.750	23.500	8.0026e-03
 8.750	23.750	8.0024e-03
 8.750	24.000	8.0024e-03
 9.000	17.000	3.8178e-03
 9.000	17.250	3.9951e-03
 9.000	17.500	4.4210e-03
 9.000	17.750	5.2136e-03
 9.000	18.000	6.4402e-03
 9.000	18.250	7.4840e-03
 9.000	18.500	7.6422e-03
 9.000	18.750	7.9681e-03
 9.000	19.000	7.9807e-03
 9.000	19.250	7.9844e-03
 9.000	19.500	7.9878e-03
 9.000	19.750	7.9912e-03
 9.000	20.000	7.9945e-03
 9.000	20.250	7.9973e-03
 9.000	20.500	7.9993e-03
 9.000	20.750	8.0002e-03
 9.000	21.000	8.0012e-03
 9.000	21.250	8.0019e-03
 9.000	21.500	8.0021e-03
 9.000	21.750	8.0022e-03
 9.000	22.000	8.0023e-03
 9.000	22.250	8.0023e-03
 9.000	22.500	8.0023e-03
 9.000	22.750	8.0023e-03
 9.000	23.000	8.0024e-03
 9.000	23.250	8.0024e-03
 9.000	23.500	8.0024e-03
 9.000	23.750	8.0024e-03
 9.000	24.000	8.0024e-03
 9.250	17.000	3.7565e-03
 9.250	17.250	3.7810e-03
 9.250	17.500	3.9731e-03
 9.250	17.750	4.4306e-03
 9.250	18.000	5.2733e-03
 9.250	18.250	6.5243e-03
 9.250	18.500	7.4811e-03
 9.250	18.750	7.6416e-03
 9.250	19.000	7.9674e-03
 9.250	19.250	7.9807e-03
 9.250	19.500	7.9843e-03
 9.250	19.750	7.9878e-03
 9.250	20.000	7.9913e-03
 9.250	20.250	7.9946e-03
 9.250	20.500	7.9973e-03
 9.250	20.750	7.9993e-03
 9.250	21.000	8.0002e-03
 9.250	21.250	8.0012e-03
 9.250	21.500	8.0015e-03
 9.250	21.750	8.0016e-03
 9.250	22.000	8.0016e-03
 9.250	22.250	8.0018e-03
 9.250	22.500	8.0020e-03
 9.250	22.750	8.0020e-03
 9.250	23.000	8.0021e-03
 9.250	23.250	8.0022e-03
 9.250	23.500	8.0021e-03
 9.250	23.750	8.0021e-03
 9.250	24.000	8.0022e-03
 9.500	17.000	3.7872e-03
 9.500	17.250	3.7184e-03
 9.500	17.500	3.7671e-03
 9.500	17.750	4.0060e-03
 9.500	18.000	4.5132e-03
 9.500	18.250	5.4328e-03
 9.500	18.500	6.7632e-03
 9.500	18.750	7.4448e-03
 9.500	19.000	7.6398e-03
 9.500	19.250	7.9660e-03
 9.500	19.500	7.9805e-03
 9.500	19.750	7.9843e-03
 9.500	20.000	7.9879e-03
 9.500	20.250	7.9913e-03
 9.500	20.500	7.9946e-03
 9.500	20.750	7.9969e-03
 9.500	21.000	7.9988e-03
 9.500	21.250	7.9998e-03
 9.500	21.500	8.0007e-03
 9.500	21.750	8.0012e-03
 9.500	22.000	8.0013e-03
 9.500	22.250	8.0015e-03
 9.500	22.500	8.0015e-03
 9.500	22.750	8.0016e-03
 9.500	23.000	8.0016e-03
 9.500	23.250	8.0016e-03
 9.500	23.500	8.0016e-03
 9.500	23.750	8.0016e-03
 9.500	24.000	8.0016e-03
 9.750	17.000	3.8700e-03
 9.750	17.250	3.7458e-03
 9.750	17.500	3.7012e-03
 9.750	17.750	3.7982e-03
 9.750	18.000	4.1104e-03
 9.750	18.250	4.7482e-03
 9.750	18.500	5.8093e-03
 9.750	18.750	7.1157e-03
 9.750	19.000	7.4430e-03
 9.750	19.250	7.6368e-03
 9.750	19.500	7.9633e-03
 9.750	19.750	7.9802e-03
 9.750	20.000	7.9842e-03
 9.750	20.250	7.9878e-03
 9.750	20.500	7.9913e-03
 9.750	20.750	7.9945e-03
 9.750	21.000	7.9970e-03
 9.750	21.250	7.9988e-03
 9.750	21.500	7.9998e-03
 9.750	21.750	8.0007e-03
 9.750	22.000	8.0012e-03
 9.750	22.250	8.0014e-03
 9.750	22.500	8.0015e-03
 9.750	22.750	8.0016e-03
 9.750	23.000	8.0016e-03
 9.750	23.250	8.0016e-03
 9.750	23.500	8.0016e-03
 9.750	23.750	8.0016e-03
 9.750	24.000	8.0016e-03
10.000	17.000	3.9749e-03
10.000	17.250	3.8171e-03
10.000	17.500	3.7119e-03
10.000	17.750	3.7291e-03
10.000	18.000	3.9444e-03
10.000	18.250	4.3938e-03
10.000	18.500	5.1772e-03
10.000	18.750	6.3305e-03
10.000	19.000	7.3105e-03
10.000	19.250	7.4416e-03
10.000	19.500	7.6319e-03
10.000	19.750	7.9585e-03
10.000	20.000	7.9799e-03
10.000	20.250	7.9841e-03
10.000	20.500	7.9879e-03
10.000	20.750	7.9914e-03
10.000	21.000	7.9946e-03
10.000	21.250	7.9972e-03
10.000	21.500	7.9988e-03
10.000	21.750	7.9998e-03
10.000	22.000	8.0007e-03
10.000	22.250	8.0012e-03
10.000	22.500	8.0014e-03
10.000	22.750	8.0015e-03
10.000	23.000	8.0016e-03
10.000	23.250	8.0016e-03
10.000	23.500	8.0016e-03
10.000	23.750	8.0016e-03
10.000	24.000	8.0016e-03
10.250	17.000	4.0837e-03
10.250	17.250	3.9155e-03
10.250	17.500	3.7812e-03
10.250	17.750	3.7570e-03
10.250	18.000	3.9181e-03
10.250	18.250	4.2576e-03
10.250	18.500	4.8370e-03
10.250	18.750	5.7304e-03
10.250	19.000	6.8485e-03
10.250	19.250	7.3351e-03
10.250	19.500	7.4407e-03
10.250	19.750	7.6266e-03
10.250	20.000	7.9515e-03
10.250	20.250	7.9793e-03
10.250	20.500	7.9840e-03
10.250	20.750	7.9878e-03
10.250	21.000	7.9914e-03
10.250	21.250	7.9947e-03
10.250	21.500	7.9973e-03
10.250	21.750	7.9989e-03
10.250	22.000	7.9998e-03
10.250	22.250	8.0008e-03
10.250	22.500	8.0013e-03
10.250	22.750	8.0014e-03
10.250	23.000	8.0015e-03
10.250	23.250	8.0016e-03
10.250	23.500	8.0016e-03
10.250	23.750	8.0016e-03
10.250	24.000	8.0016e-03
10.500	17.000	4.1744e-03
10.500	17.250	4.0153e-03
10.500	17.500	3.8773e-03
10.500	17.750	3.8430e-03
10.500	18.000	3.9757e-03
10.500	18.250	4.2578e-03
10.500	18.500	4.6697e-03
10.500	18.750	5.2712e-03
10.500	19.000	6.1415e-03
10.500	19.250	7.1285e-03
10.500	19.500	7.3357e-03
10.500	19.750	7.4406e-03
10.500	20.000	7.6219e-03
10.500	20.250	7.9430e-03
10.500	20.500	7.9786e-03
10.500	20.750	7.9837e-03
10.500	21.000	7.9878e-03
10.500	21.250	7.9914e-03
10.500	21.500	7.9947e-03
10.500	21.750	7.9974e-03
10.500	22.000	7.9992e-03
10.500	22.250	7.9999e-03
10.500	22.500	8.0008e-03
10.500	22.750	8.0014e-03
10.500	23.000	8.0015e-03
10.500	23.250	8.0015e-03
10.500	23.500	8.0016e-03
10.500	23.750	8.0016e-03
10.500	24.000	8.0016e-03
10.750	17.000	4.2282e-03
10.750	17.250	4.0956e-03
10.750	17.500	3.9714e-03
10.750	17.750	3.9449e-03
10.750	18.000	4.0519e-03
10.750	18.250	4.2565e-03
10.750	18.500	4.5220e-03
10.750	18.750	4.8922e-03
10.750	19.000	5.5057e-03
10.750	19.250	6.4162e-03
10.750	19.500	7.2077e-03
10.750	19.750	7.3374e-03
10.750	20.000	7.4412e-03
10.750	20.250	7.6192e-03
10.750	20.500	7.9365e-03
10.750	20.750	7.9779e-03
10.750	21.000	7.9833e-03
10.750	21.250	7.9877e-03
10.750	21.500	7.9914e-03
10.750	21.750	7.9947e-03
10.750	22.000	7.9974e-03
10.750	22.250	7.9993e-03
10.750	22.500	8.0001e-03
10.750	22.750	8.0008e-03
10.750	23.000	8.0015e-03
10.750	23.250	8.0016e-03
10.750	23.500	8.0016e-03
10.750	23.750	8.0015e-03
10.750	24.000	8.0016e-03
11.000	17.000	4.2263e-03
11.000	17.250	4.1350e-03
11.000	17.500	4.0356e-03
11.000	17.750	4.0151e-03
11.000	18.000	4.0956e-03
11.000	18.250	4.2189e-03
11.000	18.500	4.3770e-03
11.000	18.750	4.6125e-03
11.000	19.000	5.0190e-03
11.000	19.250	5.6928e-03
11.000	19.500	6.6462e-03
11.000	19.750	7.2047e-03
11.000	20.000	7.3391e-03
11.000	20.250	7.4423e-03
11.000	20.500	7.6203e-03
11.000	20.750	7.9351e-03
11.000	21.000	7.9771e-03
11.000	21.250	7.9830e-03
11.000	21.500	7.9876e-03
11.000	21.750	7.9914e-03
11.000	22.000	7.9947e-03
11.000	22.250	7.9974e-03
11.000	22.500	7.9993e-03
11.000	22.750	8.0002e-03
11.000	23.000	8.0010e-03
11.000	23.250	8.0015e-03
11.000	23.500	8.0016e-03
11.000	23.750	8.0016e-03
11.000	24.000	8.0016e-03
11.250	17.000	4.1402e-03
11.250	17.250	4.1099e-03
11.250	17.500	4.0395e-03
11.250	17.750	4.0220e-03
11.250	18.000	4.0756e-03
11.250	18.250	4.1398e-03
11.250	18.500	4.2303e-03
11.250	18.750	4.4002e-03
11.250	19.000	4.6651e-03
11.250	19.250	5.1198e-03
11.250	19.500	5.8528e-03
11.250	19.750	6.8032e-03
11.250	20.000	7.2016e-03
11.250	20.250	7.3403e-03
11.250	20.500	7.4463e-03
11.250	20.750	7.6281e-03
11.250	21.000	7.9447e-03
11.250	21.250	7.9765e-03
11.250	21.500	7.9826e-03
11.250	21.750	7.9874e-03
11.250	22.000	7.9914e-03
11.250	22.250	7.9947e-03
11.250	22.500	7.9973e-03
11.250	22.750	7.9993e-03
11.250	23.000	8.0002e-03
11.250	23.250	8.0012e-03
11.250	23.500	8.0015e-03
11.250	23.750	8.0016e-03
11.250	24.000	8.0017e-03
11.500	17.000	3.9268e-03
11.500	17.250	3.9850e-03
11.500	17.500	3.9550e-03
11.500	17.750	3.9417e-03
11.500	18.000	3.9784e-03
11.500	18.250	4.0259e-03
11.500	18.500	4.0925e-03
11.500	18.750	4.2145e-03
11.500	19.000	4.4058e-03
11.500	19.250	4.7025e-03
11.500	19.500	5.2014e-03
11.500	19.750	5.9754e-03
11.500	20.000	6.9138e-03
11.500	20.250	7.2161e-03
11.500	20.500	7.3429e-03
11.500	20.750	7.4528e-03
11.500	21.000	7.6490e-03
11.500	21.250	7.9601e-03
11.500	21.500	7.9758e-03
11.500	21.750	7.9821e-03
11.500	22.000	7.9872e-03
11.500	22.250	7.9913e-03
11.500	22.500	7.9947e-03
11.500	22.750	7.9973e-03
11.500	23.000	7.9993e-03
11.500	23.250	8.0002e-03
11.500	23.500	8.0012e-03
11.500	23.750	8.0016e-03
11.500	24.000	8.0017e-03
11.750	17.000	3.5231e-03
11.750	17.250	3.7067e-03
11.750	17.500	3.7468e-03
11.750	17.750	3.7616e-03
11.750	18.000	3.8087e-03
11.750	18.250	3.8722e-03
11.750	18.500	3.9408e-03
11.750	18.750	4.0328e-03
11.750	19.000	4.1788e-03
11.750	19.250	4.3914e-03
11.750	19.500	4.7206e-03
11.750	19.750	5.2563e-03
11.750	20.000	6.0674e-03
11.750	20.250	6.9784e-03
11.750	20.500	7.2538e-03
11.750	20.750	7.3480e-03
11.750	21.000	7.4695e-03
11.750	21.250	7.6999e-03
11.750	21.500	7.9640e-03
11.750	21.750	7.9751e-03
11.750	22.000	7.9816e-03
11.750	22.250	7.9870e-03
11.750	22.500	7.9911e-03
11.750	22.750	7.9946e-03
11.750	23.000	7.9973e-03
11.750	23.250	7.9993e-03
11.750	23.500	8.0002e-03
11.750	23.750	8.0012e-03
11.750	24.000	8.0017e-03
12.000	17.000	2.8966e-03
12.000	17.250	3.2261e-03
12.000	17.500	3.3819e-03
12.000	17.750	3.4772e-03
12.000	18.000	3.5703e-03
12.000	18.250	3.6578e-03
12.000	18.500	3.7405e-03
12.000	18.750	3.8306e-03
12.000	19.000	3.9512e-03
12.000	19.250	4.1196e-03
12.000	19.500	4.3579e-03
12.000	19.750	4.7158e-03
12.000	20.000	5.2849e-03
12.000	20.250	6.1305e-03
12.000	20.500	7.0170e-03
12.000	20.750	7.2523e-03
12.000	21.000	7.3599e-03
12.000	21.250	7.5154e-03
12.000	21.500	7.7903e-03
12.000	21.750	7.9643e-03
12.000	22.000	7.9747e-03
12.000	22.250	7.9814e-03
12.000	22.500	7.9867e-03
12.000	22.750	7.9910e-03
12.000	23.000	7.9945e-03
12.000	23.250	7.9972e-03
12.000	23.500	7.9993e-03
12.000	23.750	8.0002e-03
12.000	24.000	8.0012e-03
12.250	17.000	2.1240e-03
12.250	17.250	2.5627e-03
12.250	17.500	2.8665e-03
12.250	17.750	3.0828e-03
12.250	18.000	3.2331e-03
12.250	18.250	3.3472e-03
12.250	18.500	3.4512e-03
12.250	18.750	3.5617e-03
12.250	19.000	3.6887e-03
12.250	19.250	3.8435e-03
12.250	19.500	4.0466e-03
12.250	19.750	4.3051e-03
12.250	20.000	4.6914e-03
12.250	20.250	5.2898e-03
12.250	20.500	6.1695e-03
12.250	20.750	7.0210e-03
12.250	21.000	7.2568e-03
12.250	21.250	7.3875e-03
12.250	21.500	7.5835e-03
12.250	21.750	7.8978e-03
12.250	22.000	7.9635e-03
12.250	22.250	7.9732e-03
12.250	22.500	7.9807e-03
12.250	22.750	7.9864e-03
12.250	23.000	7.9909e-03
12.250	23.250	7.9943e-03
12.250	23.500	7.9971e-03
12.250	23.750	7.9993e-03
12.250	24.000	8.0002e-03
12.500	17.000	1.4349e-03
12.500	17.250	1.8978e-03
12.500	17.500	2.2876e-03
12.500	17.750	2.5671e-03
12.500	18.000	2.7636e-03
12.500	18.250	2.9130e-03
12.500	18.500	3.0514e-03
12.500	18.750	3.2012e-03
12.500	19.000	3.3629e-03
12.500	19.250	3.5366e-03
12.500	19.500	3.7298e-03
12.500	19.750	3.9619e-03
12.500	20.000	4.2405e-03
12.500	20.250	4.6470e-03
12.500	20.500	5.2702e-03
12.500	20.750	6.1967e-03
12.500	21.000	7.0383e-03
12.500	21.250	7.2749e-03
12.500	21.500	7.4316e-03
12.500	21.750	7.6672e-03
12.500	22.000	7.9477e-03
12.500	22.250	7.9625e-03
12.500	22.500	7.9721e-03
12.500	22.750	7.9800e-03
12.500	23.000	7.9860e-03
12.500	23.250	7.9907e-03
12.500	23.500	7.9942e-03
12.500	23.750	7.9971e-03
12.500	24.000	7.9993e-03
12.750	17.000	9.5654e-04
12.750	17.250	1.3403e-03
12.750	17.500	1.6825e-03
12.750	17.750	1.9488e-03
12.750	18.000	2.1676e-03
12.750	18.250	2.3601e-03
12.750	18.500	2.5470e-03
12.750	18.750	2.7452e-03
12.750	19.000	2.9581e-03
12.750	19.250	3.1751e-03
12.750	19.500	3.3912e-03
12.750	19.750	3.6117e-03
12.750	20.000	3.8642e-03
12.750	20.250	4.1615e-03
12.750	20.500	4.5828e-03
12.750	20.750	5.2398e-03
12.750	21.000	6.2227e-03
12.750	21.250	7.0436e-03
12.750	21.500	7.3000e-03
12.750	21.750	7.4937e-03
12.750	22.000	7.7569e-03
12.750	22.250	7.9487e-03
12.750	22.500	7.9615e-03
12.750	22.750	7.9714e-03
12.750	23.000	7.9793e-03
12.750	23.250	7.9855e-03
12.750	23.500	7.9904e-03
12.750	23.750	7.9940e-03
12.750	24.000	7.9970e-03
13.000	17.000	5.9366e-04
13.000	17.250	8.3539e-04
13.000	17.500	1.0816e-03
13.000	17.750	1.3090e-03
13.000	18.000	1.5222e-03
13.000	18.250	1.7409e-03
13.000	18.500	1.9689e-03
13.000	18.750	2.2099e-03
13.000	19.000	2.4699e-03
13.000	19.250	2.7400e-03
13.000	19.500	2.9986e-03
13.000	19.750	3.2443e-03
13.000	20.000	3.4877e-03
13.000	20.250	3.7551e-03
13.000	20.500	4.0641e-03
13.000	20.750	4.5048e-03
13.000	21.000	5.1949e-03
13.000	21.250	6.2514e-03
13.000	21.500	7.0464e-03
13.000	21.750	7.3412e-03
13.000	22.000	7.5484e-03
13.000	22.250	7.8242e-03
13.000	22.500	7.9486e-03
13.000	22.750	7.9608e-03
13.000	23.000	7.9708e-03
13.000	23.250	7.9788e-03
13.000	23.500	7.9851e-03
13.000	23.750	7.9900e-03
13.000	24.000	7.9937e-03
13.250	17.000	3.7951e-04
13.250	17.250	5.2198e-04
13.250	17.500	6.5481e-04
13.250	17.750	7.9300e-04
13.250	18.000	9.5342e-04
13.250	18.250	1.1477e-03
13.250	18.500	1.3779e-03
13.250	18.750	1.6398e-03
13.250	19.000	1.9271e-03
13.250	19.250	2.2337e-03
13.250	19.500	2.5393e-03
13.250	19.750	2.8307e-03
13.250	20.000	3.0974e-03
13.250	20.250	3.3514e-03
13.250	20.500	3.6260e-03
13.250	20.750	3.9456e-03
13.250	21.000	4.4065e-03
13.250	21.250	5.1435e-03
13.250	21.500	6.2411e-03
13.250	21.750	7.0895e-03
13.250	22.000	7.3574e-03
13.250	22.250	7.5890e-03
13.250	22.500	7.8457e-03
13.250	22.750	7.9480e-03
13.250	23.000	7.9600e-03
13.250	23.250	7.9697e-03
13.250	23.500	7.9781e-03
13.250	23.750	7.9846e-03
13.250	24.000	7.9895e-03
13.500	17.000	2.5325e-04
13.500	17.250	3.3885e-04
13.500	17.500	4.1506e-04
13.500	17.750	4.8362e-04
13.500	18.000	5.7226e-04
13.500	18.250	6.9918e-04
13.500	18.500	8.7465e-04
13.500	18.750	1.1044e-03
13.500	19.000	1.3807e-03
13.500	19.250	1.6914e-03
13.500	19.500	2.0179e-03
13.500	19.750	2.3427e-03
13.500	20.000	2.6463e-03
13.500	20.250	2.9280e-03
13.500	20.500	3.1929e-03
13.500	20.750	3.4736e-03
13.500	21.000	3.7960e-03
13.500	21.250	4.2772e-03
13.500	21.500	5.0267e-03
13.500	21.750	6.2056e-03
13.500	22.000	7.1100e-03
13.500	22.250	7.3563e-03
13.500	22.500	7.5793e-03
13.500	22.750	7.8338e-03
13.500	23.000	7.9467e-03
13.500	23.250	7.9588e-03
13.500	23.500	7.9691e-03
13.500	23.750	7.9775e-03
13.500	24.000	7.9840e-03
13.750	17.000	1.7737e-04
13.750	17.250	2.3152e-04
13.750	17.500	2.7704e-04
13.750	17.750	3.1407e-04
13.750	18.000	3.6107e-04
13.750	18.250	4.3514e-04
13.750	18.500	5.4313e-04
13.750	18.750	6.9564e-04
13.750	19.000	9.0551e-04
13.750	19.250	1.1752e-03
13.750	19.500	1.4865e-03
13.750	19.750	1.8170e-03
13.750	20.000	2.1458e-03
13.750	20.250	2.4548e-03
13.750	20.500	2.7417e-03
13.750	20.750	3.0133e-03
13.750	21.000	3.2945e-03
13.750	21.250	3.6227e-03
13.750	21.500	4.1120e-03
13.750	21.750	4.9049e-03
13.750	22.000	6.1713e-03
13.750	22.250	7.1277e-03
13.750	22.500	7.3319e-03
13.750	22.750	7.5683e-03
13.750	23.000	7.8280e-03
13.750	23.250	7.9446e-03
13.750	23.500	7.9572e-03
13.750	23.750	7.9680e-03
13.750	24.000	7.9765e-03
14.000	17.000	1.2947e-04
14.000	17.250	1.6724e-04
14.000	17.500	1.9728e-04
14.000	17.750	2.1819e-04
14.000	18.000	2.4403e-04
14.000	18.250	2.8626e-04
14.000	18.500	3.4988e-04
14.000	18.750	4.4272e-04
14.000	19.000	5.7424e-04
14.000	19.250	7.5984e-04
14.000	19.500	1.0084e-03
14.000	19.750	1.3061e-03
14.000	20.000	1.6280e-03
14.000	20.250	1.9528e-03
14.000	20.500	2.2589e-03
14.000	20.750	2.5434e-03
14.000	21.000	2.8151e-03
14.000	21.250	3.0956e-03
14.000	21.500	3.4393e-03
14.000	21.750	3.9364e-03
14.000	22.000	4.7826e-03
14.000	22.250	6.1838e-03
14.000	22.500	7.1365e-03
14.000	22.750	7.3180e-03
14.000	23.000	7.5559e-03
14.000	23.250	7.8390e-03
14.000	23.500	7.9412e-03
14.000	23.750	7.9543e-03
14.000	24.000	7.9660e-03
